File: Si_sus_bias/materials/Si.csv
wavelength (nm),refractive index
2119.87,3.45032
2124.76,3.45017
2129.66,3.45002
2134.57,3.44987
2139.49,3.44972
2144.42,3.44958
2149.36,3.44943
2154.32,3.44928
2159.28,3.44913
2164.26,3.44899
2169.25,3.44884
2174.25,3.4487
2179.26,3.44856
2184.29,3.44841
2189.32,3.44827
2194.37,3.44813
2199.43,3.44799
2204.5,3.44785
2209.58,3.44771
2214.67,3.44757
2219.78,3.44743
2224.9,3.4473
2230.03,3.44716
2235.17,3.44702
2240.32,3.44689
2245.48,3.44675
2250.66,3.44662
2255.85,3.44648
2261.05,3.44635
2266.26,3.44622
2271.49,3.44609
2276.72,3.44596
2281.97,3.44583
2287.23,3.4457
2292.5,3.44557
2297.79,3.44544
2303.08,3.44531
2308.39,3.44518
2313.72,3.44506
2319.05,3.44493
2324.39,3.4448
2329.75,3.44468
2335.12,3.44456
2340.51,3.44443
2345.9,3.44431
2351.31,3.44419
2356.73,3.44406
2362.16,3.44394
2367.61,3.44382
2373.07,3.4437
2378.54,3.44358
2384.02,3.44346
2389.52,3.44334
2395.02,3.44323
2400.55,3.44311
2406.08,3.44299
2411.63,3.44288
2417.18,3.44276
2422.76,3.44264
2428.34,3.44253
2433.94,3.44242
2439.55,3.4423
2445.17,3.44219
2450.81,3.44208
2456.46,3.44196
2462.12,3.44185
2467.8,3.44174
2473.49,3.44163
2479.19,3.44152
2484.91,3.44141
2490.63,3.4413
2496.38,3.44119
2502.13,3.44109
2507.9,3.44098
2513.68,3.44087
2519.47,3.44077
2525.28,3.44066
2531.1,3.44056
2536.94,3.44045
2542.79,3.44035
2548.65,3.44024
2554.52,3.44014
2560.41,3.44004
2566.31,3.43993
2572.23,3.43983
2578.16,3.43973
2584.1,3.43963
2590.06,3.43953
2596.03,3.43943
2602.02,3.43933
2608.01,3.43923
2614.03,3.43913
2620.05,3.43903
2626.09,3.43894
2632.15,3.43884
2638.21,3.43874
2644.29,3.43865
2650.39,3.43855
2656.5,3.43846
2662.62,3.43836
2668.76,3.43827
2674.91,3.43817
2681.08,3.43808
2687.26,3.43799
2693.46,3.43789
2699.67,3.4378
2705.89,3.43771
2712.13,3.43762
2718.38,3.43753
2724.64,3.43744
2730.93,3.43735
2737.22,3.43726
2743.53,3.43717
2749.86,3.43708
2756.19,3.43699
2762.55,3.4369
2768.92,3.43681
2775.3,3.43673
2781.7,3.43664
2788.11,3.43655
2794.54,3.43647
2800.98,3.43638
2807.44,3.4363
2813.91,3.43621
2820.39,3.43613
2826.9,3.43604
2833.41,3.43596
2839.94,3.43588
2846.49,3.43579
2853.05,3.43571
2859.63,3.43563
2866.22,3.43555
2872.83,3.43547
2879.45,3.43539
2886.09,3.43531
2892.74,3.43523
2899.41,3.43515
2906.1,3.43507
2912.79,3.43499
2919.51,3.43491
2926.24,3.43483
2932.99,3.43475
2939.75,3.43468
2946.52,3.4346
2953.32,3.43452
2960.12,3.43445
2966.95,3.43437
2973.79,3.43429
2980.64,3.43422
2987.51,3.43414
2994.4,3.43407
3001.3,3.43399
3008.22,3.43392
3015.16,3.43385
3022.11,3.43377
3029.07,3.4337
3036.06,3.43363
3043.06,3.43356
3050.07,3.43348
3057.1,3.43341
3064.15,3.43334
3071.21,3.43327
3078.29,3.4332
3085.39,3.43313
3092.5,3.43306
3099.63,3.43299
3106.78,3.43292
3113.94,3.43285
3121.12,3.43278
3128.31,3.43271
3135.52,3.43265
3142.75,3.43258
3150,3.43251
3157.26,3.43244
3164.53,3.43238
3171.83,3.43231
3179.14,3.43225
3186.47,3.43218
3193.82,3.43211
3201.18,3.43205
3208.56,3.43198
3215.95,3.43192
3223.37,3.43186
3230.8,3.43179
3238.25,3.43173
3245.71,3.43166
3253.19,3.4316
3260.69,3.43154
3268.21,3.43148
3275.74,3.43141
3283.29,3.43135
3290.86,3.43129
3298.45,3.43123
3306.05,3.43117
3313.67,3.43111
3321.31,3.43105
3328.97,3.43099
3336.64,3.43093
3344.34,3.43087
3352.05,3.43081
3359.77,3.43075
3367.52,3.43069
3375.28,3.43063
3383.06,3.43057
3390.86,3.43052
3398.68,3.43046
3406.51,3.4304
3414.36,3.43034
3422.24,3.43029
3430.12,3.43023
3438.03,3.43017
3445.96,3.43012
3453.9,3.43006
3461.86,3.43001
3469.84,3.42995
3477.84,3.4299
3485.86,3.42984
3493.9,3.42979
3501.95,3.42973
3510.02,3.42968
3518.11,3.42962
3526.22,3.42957
3534.35,3.42952
3542.5,3.42946
3550.67,3.42941
3558.85,3.42936
3567.06,3.42931
3575.28,3.42925
3583.52,3.4292
3591.78,3.42915
3600.06,3.4291
3608.36,3.42905
3616.68,3.429
3625.02,3.42895
3633.37,3.4289
3641.75,3.42885
3650.14,3.4288
3658.56,3.42875
3666.99,3.4287
3675.44,3.42865
3683.92,3.4286
3692.41,3.42855
3700.92,3.4285
3709.45,3.42845
3718,3.42841
3726.58,3.42836
3735.17,3.42831
3743.78,3.42826
3752.41,3.42822
3761.06,3.42817
3769.73,3.42812
3778.42,3.42807
3787.13,3.42803
3795.86,3.42798
3804.61,3.42794
3813.38,3.42789
3822.17,3.42785
3830.98,3.4278
3839.81,3.42775
3848.66,3.42771
3857.54,3.42767
3866.43,3.42762
3875.34,3.42758
3884.27,3.42753
3893.23,3.42749
3902.2,3.42744
3911.2,3.4274
3920.21,3.42736
3929.25,3.42732
3938.31,3.42727
3947.39,3.42723
3956.49,3.42719
3965.61,3.42715
3974.75,3.4271
3983.91,3.42706
3993.1,3.42702
4002.3,3.42698
4011.53,3.42694
4020.78,3.4269
4030.04,3.42685
4039.34,3.42681
4048.65,3.42677
4057.98,3.42673
4067.33,3.42669
4076.71,3.42665
4086.11,3.42661
4095.53,3.42657
4104.97,3.42653
4114.43,3.4265
4123.92,3.42646
4133.42,3.42642
4142.95,3.42638
4152.5,3.42634
4162.07,3.4263
4171.67,3.42626
4181.29,3.42623
4190.92,3.42619
4200.59,3.42615
4210.27,3.42611
4219.98,3.42608
4229.7,3.42604
4239.45,3.426
4249.23,3.42596
4259.02,3.42593
4268.84,3.42589
4278.68,3.42586
4288.54,3.42582
4298.43,3.42578
4308.34,3.42575
4318.27,3.42571
4328.23,3.42568
4338.2,3.42564
4348.2,3.42561
4358.23,3.42557
4368.27,3.42554
4378.34,3.4255
4388.44,3.42547
4398.55,3.42543
4408.69,3.4254
4418.86,3.42537
4429.04,3.42533
4439.25,3.4253
4449.49,3.42526
4459.74,3.42523
4470.02,3.4252
4480.33,3.42516
4490.66,3.42513
4501.01,3.4251
4511.38,3.42507
4521.78,3.42503
4532.21,3.425
4542.66,3.42497
4553.13,3.42494
4563.62,3.42491
4574.14,3.42487
4584.69,3.42484
4595.26,3.42481
4605.85,3.42478
4616.47,3.42475
4627.11,3.42472
4637.78,3.42469
4648.47,3.42466
4659.18,3.42463
4669.92,3.4246
4680.69,3.42456
4691.48,3.42453
4702.3,3.4245
4713.13,3.42447
4724,3.42444
4734.89,3.42442
4745.8,3.42439
4756.75,3.42436
4767.71,3.42433
4778.7,3.4243
4789.72,3.42427
4800.76,3.42424
4811.83,3.42421
4822.92,3.42418
4834.04,3.42416
4845.18,3.42413
4856.35,3.4241
4867.54,3.42407
4878.76,3.42404
4890.01,3.42401
4901.28,3.42399
4912.58,3.42396
4923.91,3.42393
4935.26,3.4239
4946.64,3.42388
4958.04,3.42385
4969.47,3.42382
4980.92,3.4238
4992.41,3.42377
5003.91,3.42374
5015.45,3.42372
5027.01,3.42369
5038.6,3.42367
5050.22,3.42364
5061.86,3.42361
5073.53,3.42359
5085.22,3.42356
5096.94,3.42354
5108.69,3.42351
5120.47,3.42349
5132.27,3.42346
5144.11,3.42344
5155.96,3.42341
5167.85,3.42339
5179.76,3.42336
5191.7,3.42334
5203.67,3.42331
5215.67,3.42329
5227.69,3.42326
5239.74,3.42324
5251.82,3.42321
5263.93,3.42319
5276.06,3.42317
5288.22,3.42314
5300.42,3.42312
5312.63,3.4231
5324.88,3.42307
5337.16,3.42305
5349.46,3.42303
5361.79,3.423
5374.15,3.42298
5386.54,3.42296
5398.96,3.42293
5411.4,3.42291
5423.88,3.42289
5436.38,3.42287
5448.91,3.42284
5461.47,3.42282
5474.06,3.4228
5486.68,3.42278
5499.33,3.42275
5512.01,3.42273
5524.71,3.42271
5537.45,3.42269
5550.22,3.42267
5563.01,3.42265
5575.83,3.42262
5588.69,3.4226
5601.57,3.42258
5614.48,3.42256
5627.43,3.42254
5640.4,3.42252
5653.4,3.4225
5666.43,3.42248
5679.5,3.42246
5692.59,3.42244
5705.71,3.42242
5718.87,3.4224
5732.05,3.42238
5745.26,3.42236
5758.51,3.42234
5771.78,3.42231
5785.09,3.42229
5798.42,3.42228
5811.79,3.42226
5825.19,3.42224
5838.62,3.42222
5852.07,3.4222
5865.57,3.42218
5879.09,3.42216
5892.64,3.42214
5906.22,3.42212
5919.84,3.4221
5933.49,3.42208
5947.16,3.42206
5960.87,3.42204
5974.61,3.42202
5988.39,3.42201
6002.19,3.42199
6016.03,3.42197
6029.9,3.42195
6043.8,3.42193
6057.73,3.42191
6071.69,3.4219
6085.69,3.42188
6099.72,3.42186
6113.78,3.42184
6127.87,3.42182
6142,3.42181
6156.16,3.42179
6170.35,3.42177
6184.58,3.42175
6198.83,3.42174
6213.12,3.42172
6227.44,3.4217
6241.8,3.42168
6256.19,3.42167
6270.61,3.42165
6285.07,3.42163
6299.56,3.42162
6314.08,3.4216
6328.63,3.42158
6343.22,3.42156
6357.84,3.42155
6372.5,3.42153
6387.19,3.42151
6401.91,3.4215
6416.67,3.42148
6431.46,3.42147
6446.29,3.42145
6461.15,3.42143
6476.05,3.42142
6490.97,3.4214
6505.94,3.42138
6520.94,3.42137
6535.97,3.42135
6551.03,3.42134
6566.14,3.42132
6581.27,3.4213
6596.44,3.42129
6611.65,3.42127
6626.89,3.42125
6642.17,3.42124
6657.48,3.42122
6672.83,3.42121
6688.21,3.42119
6703.63,3.42118
6719.08,3.42116
6734.57,3.42114
6750.09,3.42113
6765.66,3.42111
6781.25,3.4211
6796.88,3.42108
6812.55,3.42107
6828.26,3.42106
6844,3.42104
6859.78,3.42103
6875.59,3.42102
6891.44,3.42101
6907.32,3.42099
6923.25,3.42098
6939.21,3.42097
6955.2,3.42096
6971.24,3.42095
6987.31,3.42093
7003.42,3.42092
7019.56,3.42091
7035.74,3.42089
7051.96,3.42088
7068.22,3.42087
7084.51,3.42085
7100.84,3.42084
7117.21,3.42082
7133.62,3.42081
7150.06,3.4208
7166.55,3.42079
7183.07,3.42077
7199.63,3.42076
7216.22,3.42075
7232.86,3.42073
7249.53,3.42072
7266.24,3.42071
7282.99,3.4207
7299.78,3.42068
7316.61,3.42067
7333.48,3.42066
7350.38,3.42065
7367.33,3.42063
7384.31,3.42062
7401.33,3.42061
7418.39,3.42059
7435.49,3.42058
7452.64,3.42057
7469.82,3.42056
7487.04,3.42054
7504.29,3.42053
7521.59,3.42052
7538.93,3.42051
7556.31,3.42049
7573.73,3.42048
7591.19,3.42047
7608.69,3.42046
7626.23,3.42045
7643.81,3.42044
7661.43,3.42043
7679.09,3.42042
7696.79,3.42041
7714.54,3.4204
7732.32,3.42039
7750.15,3.42038
7768.01,3.42037
7785.92,3.42036
7803.87,3.42034
7821.86,3.42033
7839.89,3.42032
7857.96,3.42031
7876.08,3.4203
7894.23,3.42029
7912.43,3.42028
7930.67,3.42027
7948.95,3.42026
7967.28,3.42025
7985.64,3.42023
8004.05,3.42022
8022.5,3.42021
8041,3.4202
8059.53,3.42019
8078.11,3.42018
8096.73,3.42017
8115.4,3.42015
8134.11,3.42014
8152.86,3.42013
8171.65,3.42012
8190.49,3.42011
8209.37,3.4201
8228.3,3.42008
8247.26,3.42007
8266.28,3.42006
8285.33,3.42005
8304.43,3.42004
8323.57,3.42003
8342.76,3.42002
8361.99,3.42001
8381.27,3.42
8400.59,3.41999
8419.96,3.41998
8439.37,3.41997
8458.82,3.41996
8478.32,3.41995
8497.87,3.41994
8517.46,3.41993
8537.09,3.41992
8556.77,3.41991
8576.5,3.4199
8596.27,3.41989
8616.08,3.41988
8635.95,3.41987
8655.85,3.41987
8675.81,3.41986
8695.81,3.41985
8715.85,3.41984
8735.94,3.41983
8756.08,3.41982
8776.27,3.41981
8796.5,3.41981
8816.78,3.4198
8837.1,3.41979
8857.47,3.41979
8877.89,3.41978
8898.36,3.41977
8918.87,3.41977
8939.43,3.41976
8960.04,3.41975
8980.69,3.41975
9001.4,3.41974
9022.15,3.41973
9042.94,3.41973
9063.79,3.41972
9084.69,3.41972
9105.63,3.41971
9126.62,3.4197
9147.66,3.41969
9168.74,3.41969
9189.88,3.41968
9211.07,3.41967
9232.3,3.41966
9253.58,3.41965
9274.91,3.41965
9296.29,3.41964
9317.72,3.41963
9339.2,3.41962
9360.73,3.41961
9382.31,3.4196
9403.94,3.41959
9425.62,3.41958
9447.35,3.41957
9469.13,3.41956
9490.95,3.41955
9512.83,3.41954
9534.76,3.41953
9556.74,3.41952
9578.77,3.41951
9600.85,3.41951
9622.99,3.41949
9645.17,3.41948
9667.4,3.41947
9689.69,3.41946
9712.03,3.41945
9734.42,3.41944
9756.86,3.41943
9779.35,3.41942
9801.89,3.41942
9824.49,3.41941
9847.13,3.4194
9869.83,3.41939
9892.59,3.41938
9915.39,3.41937
9938.25,3.41936
9961.16,3.41935
9984.12,3.41934
10007.1,3.41933
10030.2,3.41933
10053.3,3.41932
10076.5,3.41931
10099.7,3.4193
10123,3.4193
10146.4,3.41929
10169.7,3.41928
10193.2,3.41928
10216.7,3.41927
10240.2,3.41927
10263.8,3.41926
10287.5,3.41926
10311.2,3.41925
10335,3.41925
10358.8,3.41925
10382.7,3.41924
10406.6,3.41924
10430.6,3.41923
10454.7,3.41923
10478.8,3.41922
10502.9,3.41922
10527.1,3.41921
10551.4,3.41921
10575.7,3.4192
10600.1,3.41919
10624.5,3.41918
10649,3.41918
10673.6,3.41917
10698.2,3.41916
10722.8,3.41915
10747.6,3.41914
10772.3,3.41914
10797.2,3.41913
10822.1,3.41912
10847,3.41912
10872,3.41911
10897.1,3.41911
10922.2,3.4191
10947.4,3.4191
10972.6,3.41909
10997.9,3.41909
11023.3,3.41909
11048.7,3.41909
11074.1,3.41909
11099.7,3.41909
11125.3,3.41909
11150.9,3.41909
11176.6,3.41908
11202.4,3.41908
11228.2,3.41908
11254.1,3.41908
11280,3.41908
11306,3.41908
11332.1,3.41908
11358.2,3.41908
11384.4,3.41908
11410.6,3.41908
11436.9,3.41908
11463.3,3.41908
11489.7,3.41907
11516.2,3.41907
11542.8,3.41907
11569.4,3.41907
11596,3.41907
11622.8,3.41907
11649.6,3.41906
11676.4,3.41906
11703.3,3.41905
11730.3,3.41904
11757.4,3.41903
11784.5,3.41903
11811.6,3.41902
11838.9,3.41901
11866.2,3.419
11893.5,3.41899
11920.9,3.41898
11948.4,3.41897
11975.9,3.41896
12003.6,3.41894
12031.2,3.41894
12059,3.41893
12086.8,3.41892
12114.6,3.41892
12142.5,3.41892
12170.5,3.41892
12198.6,3.41892
12226.7,3.41892
12254.9,3.41893
12283.2,3.41893
12311.5,3.41893
12339.8,3.41893
12368.3,3.41892
12396.8,3.41892
12425.4,3.41891
12454,3.4189
12482.7,3.41889
12511.5,3.41888
12540.4,3.41887
12569.3,3.41886
12598.2,3.41886
12627.3,3.41885
12656.4,3.41885
12685.6,3.41885
12714.8,3.41885
12744.1,3.41884
12773.5,3.41884
12802.9,3.41884
12832.5,3.41883
12862,3.41883
12891.7,3.41883
12921.4,3.41882
12951.2,3.41882
12981.1,3.41881
13011,3.41881
13041,3.41881
13071,3.4188
13101.2,3.4188
13131.4,3.4188
13161.6,3.41879
13192,3.41879
13222.4,3.41878
13252.9,3.41878
13283.4,3.41878
13314,3.41878
13344.7,3.41877
13375.5,3.41877
13406.3,3.41877
13437.2,3.41877
13468.2,3.41878
13499.3,3.41879
13530.4,3.4188
13561.6,3.41882
13592.8,3.41883
13624.2,3.41884
13655.6,3.41885
13687.1,3.41886
13718.6,3.41886
13750.2,3.41887
13781.9,3.41887
13813.7,3.41887
13845.5,3.41888
13877.5,3.41888
13909.4,3.41888
13941.5,3.41888
13973.7,3.41887
14005.9,3.41887
14038.2,3.41886
14070.5,3.41884
14102.9,3.41883
14135.5,3.41881
14168,3.41879
14200.7,3.41878
14233.4,3.41876
14266.3,3.41875
14299.1,3.41873
14332.1,3.41872
14365.1,3.4187
14398.3,3.41869
14431.4,3.41868
14464.7,3.41868
14498.1,3.41867
14531.5,3.41866
14565,3.41866
14598.6,3.41865
14632.2,3.41864
14665.9,3.41863
14699.7,3.41862
14733.6,3.41861
14767.6,3.4186
14801.6,3.41859
14835.8,3.41858
14870,3.41857
14904.2,3.41857
14938.6,3.41856
14973,3.41855
15007.6,3.41854