File: Si_sus_bias/materials/SiO2.csv
wavelength (nm),refractive index
300.193,1.50212
301.578,1.50171
302.97,1.50131
304.369,1.50091
305.774,1.50052
307.185,1.50013
308.603,1.49975
310.027,1.49937
311.458,1.499
312.896,1.49862
314.34,1.49826
315.791,1.4979
317.249,1.49754
318.713,1.49718
320.184,1.49683
321.662,1.49648
323.147,1.49614
324.638,1.4958
326.137,1.49546
327.642,1.49513
329.155,1.4948
330.674,1.49448
332.2,1.49416
333.734,1.49384
335.274,1.49352
336.822,1.49321
338.376,1.4929
339.938,1.4926
341.507,1.4923
343.084,1.492
344.667,1.4917
346.258,1.49141
347.856,1.49112
349.462,1.49084
351.075,1.49055
352.695,1.49028
354.323,1.49
355.959,1.48972
357.602,1.48945
359.253,1.48918
360.911,1.48892
362.577,1.48866
364.25,1.4884
365.932,1.48814
367.621,1.48788
369.317,1.48763
371.022,1.48738
372.735,1.48714
374.455,1.48689
376.184,1.48665
377.92,1.48641
379.664,1.48617
381.417,1.48594
383.177,1.48571
384.946,1.48548
386.723,1.48525
388.508,1.48503
390.301,1.4848
392.103,1.48458
393.913,1.48436
395.731,1.48415
397.557,1.48393
399.392,1.48372
401.236,1.48351
403.088,1.48331
404.949,1.4831
406.818,1.4829
408.696,1.48269
410.582,1.4825
412.477,1.4823
414.381,1.4821
416.294,1.48191
418.215,1.48172
420.146,1.48153
422.085,1.48134
424.033,1.48115
425.99,1.48097
427.957,1.48079
429.932,1.48061
431.917,1.48043
433.91,1.48025
435.913,1.48007
437.925,1.4799
439.946,1.47973
441.977,1.47956
444.017,1.47939
446.067,1.47922
448.126,1.47906
450.194,1.47889
452.272,1.47873
454.36,1.47857
456.457,1.47841
458.564,1.47825
460.681,1.47809
462.807,1.47794
464.943,1.47779
467.089,1.47763
469.245,1.47748
471.411,1.47733
473.587,1.47718
475.773,1.47704
477.969,1.47689
480.175,1.47675
482.392,1.47661
484.618,1.47647
486.855,1.47633
489.102,1.47619
491.36,1.47605
493.628,1.47591
495.907,1.47578
498.196,1.47564
500.495,1.47551
502.805,1.47538
505.126,1.47525
507.458,1.47512
509.8,1.47499
512.153,1.47487
514.517,1.47474
516.892,1.47462
519.278,1.47449
521.675,1.47437
524.083,1.47425
526.502,1.47413
528.932,1.47401
531.373,1.47389
533.826,1.47377
536.29,1.47366
538.766,1.47354
541.252,1.47343
543.751,1.47331
546.261,1.4732
548.782,1.47309
551.315,1.47298
553.86,1.47287
556.416,1.47276
558.985,1.47265
561.565,1.47255
564.157,1.47244
566.761,1.47234
569.377,1.47223
572.005,1.47213
574.645,1.47203
577.298,1.47192
579.962,1.47182
582.639,1.47172
585.329,1.47162
588.031,1.47152
590.745,1.47143
593.471,1.47133
596.211,1.47123
598.963,1.47114
601.728,1.47104
604.505,1.47095
607.295,1.47086
610.098,1.47076
612.914,1.47067
615.744,1.47058
618.586,1.47049
621.441,1.4704
624.309,1.47031
627.191,1.47022
630.086,1.47013
632.994,1.47005
635.916,1.46996
638.851,1.46987
641.8,1.46979
644.763,1.4697
647.739,1.46962
650.729,1.46953
653.732,1.46945
656.75,1.46937
659.781,1.46929
662.827,1.46921
665.886,1.46912
668.96,1.46904
672.047,1.46896
675.149,1.46889
678.266,1.46881
681.396,1.46873
684.542,1.46865
687.701,1.46857
690.876,1.4685
694.065,1.46842
697.268,1.46834
700.487,1.46827
703.72,1.46819
706.968,1.46812
710.231,1.46805
713.51,1.46797
716.803,1.4679
720.112,1.46783
723.436,1.46775
726.775,1.46768
730.129,1.46761
733.5,1.46754
736.885,1.46747
740.287,1.4674
743.704,1.46733
747.136,1.46726
750.585,1.46719
754.05,1.46712
757.53,1.46705
761.027,1.46698
764.539,1.46692
768.068,1.46685
771.614,1.46678
775.175,1.46671
778.753,1.46665
782.348,1.46658
785.959,1.46652
789.587,1.46645
793.231,1.46638
796.893,1.46632
800.571,1.46625
804.266,1.46619
807.979,1.46613
811.708,1.46606
815.455,1.466
819.219,1.46593
823,1.46587
826.799,1.46581
830.615,1.46575
834.449,1.46568
838.301,1.46562
842.17,1.46556
846.057,1.4655
849.963,1.46543
853.886,1.46537
857.827,1.46531
861.787,1.46525
865.765,1.46519
869.761,1.46513
873.776,1.46507
877.809,1.46501
881.86,1.46495
885.931,1.46489
890.02,1.46483
894.128,1.46477
898.255,1.46471
902.402,1.46465
906.567,1.46459
910.751,1.46453
914.955,1.46447
919.179,1.46441
923.421,1.46435
927.684,1.46429
931.966,1.46423
936.267,1.46417
940.589,1.46412
944.93,1.46406
949.292,1.464
953.674,1.46394
958.076,1.46388
962.498,1.46382
966.941,1.46376
971.404,1.46371
975.888,1.46365
980.392,1.46359
984.918,1.46353
989.464,1.46347
994.031,1.46341
998.619,1.46336
1003.23,1.4633
1007.86,1.46324
1012.51,1.46318
1017.18,1.46312
1021.88,1.46306
1026.6,1.46301
1031.34,1.46295
1036.1,1.46289
1040.88,1.46283
1045.68,1.46277
1050.51,1.46271
1055.36,1.46266
1060.23,1.4626
1065.12,1.46254
1070.04,1.46248
1074.98,1.46242
1079.94,1.46236
1084.93,1.4623
1089.93,1.46225
1094.96,1.46219
1100.02,1.46213
1105.1,1.46207
1110.2,1.46201
1115.32,1.46195
1120.47,1.46189
1125.64,1.46183
1130.84,1.46177
1136.06,1.46171
1141.3,1.46165
1146.57,1.46159
1151.86,1.46153
1157.18,1.46147
1162.52,1.46141
1167.88,1.46135
1173.28,1.46128
1178.69,1.46122
1184.13,1.46116
1189.6,1.4611
1195.09,1.46104
1200.6,1.46098
1206.15,1.46091
1211.71,1.46085
1217.31,1.46079
1222.93,1.46073
1228.57,1.46066
1234.24,1.4606
1239.94,1.46053
1245.66,1.46047
1251.41,1.46041
1257.19,1.46034
1262.99,1.46028
1268.82,1.46021
1274.68,1.46015
1280.56,1.46008
1286.47,1.46002
1292.41,1.459949
1298.37,1.45988
1304.37,1.45982
1310.39,1.45975
1316.44,1.45968
1322.51,1.45961
1328.62,1.45955
1334.75,1.45948
1340.91,1.45941
1347.1,1.45934
1353.32,1.45927
1359.56,1.4592
1365.84,1.45913
1372.14,1.45906
1378.48,1.45899
1384.84,1.45892
1391.23,1.45884
1397.65,1.45877
1404.11,1.4587
1410.59,1.45863
1417.1,1.45855
1423.64,1.45848
1430.21,1.4584
1436.81,1.45833
1443.44,1.45825
1450.11,1.45818
1456.8,1.4581
1463.52,1.45802
1470.28,1.45795
1477.07,1.45787
1483.88,1.45779
1490.73,1.45771
1497.61,1.45763
1504.53,1.45755
1511.47,1.45747
1518.45,1.45739
1525.46,1.45731
1532.5,1.45723
1539.57,1.45715
1546.68,1.45706
1553.82,1.45698
1560.99,1.4569
1568.19,1.45681
1575.43,1.45673
1582.7,1.45664
1590.01,1.45655
1597.35,1.45646
1604.72,1.45638
1612.13,1.45629
1619.57,1.4562
1627.05,1.45611
1634.56,1.45602
1642.1,1.45593
1649.68,1.45583
1657.3,1.45574
1664.94,1.45565
1672.63,1.45555
1680.35,1.45546
1688.11,1.45536
1695.9,1.45527
1703.73,1.45517
1711.59,1.45507
1719.49,1.45497
1727.43,1.45487
1735.4,1.45477
1743.41,1.45467
1751.46,1.45457
1759.54,1.45447
1767.66,1.45436
1775.82,1.45426
1784.02,1.45415
1792.26,1.45405
1800.53,1.45394
1808.84,1.45383
1817.19,1.45372
1825.58,1.45361
1834,1.4535
1842.47,1.45339
1850.97,1.45328
1859.52,1.45316
1868.1,1.45305
1876.72,1.45293
1885.38,1.45282
1894.09,1.4527
1902.83,1.45258
1911.61,1.45246
1920.44,1.45234
1929.3,1.45222
1938.21,1.4521
1947.15,1.45197
1956.14,1.45185
1965.17,1.45172
1974.24,1.45159
1983.35,1.45146
1992.51,1.45133
2001.7,1.4512
2010.94,1.45107
2020.23,1.45094
2029.55,1.4508
2038.92,1.45067
2048.33,1.45053
2057.78,1.45039
2067.28,1.45025
2076.82,1.45011
2086.41,1.44997
2096.04,1.44982
2105.72,1.44968
2115.44,1.44953
2125.2,1.44938
2135.01,1.44923
2144.86,1.44908
2154.76,1.44893
2164.71,1.44877
2174.7,1.44862
2184.74,1.44846
2194.82,1.4483
2204.96,1.44814
2215.13,1.44798
2225.36,1.44781
2235.63,1.44765
2245.95,1.44748
2256.32,1.44731
2266.73,1.44714
2277.19,1.44697
2287.7,1.44679
2298.26,1.44662
2308.87,1.44644
2319.53,1.44626
2330.24,1.44607
2340.99,1.44589
2351.8,1.4457
2362.65,1.44551
2373.56,1.44532
2384.51,1.44513
2395.52,1.44494
2406.58,1.44474
2417.69,1.44454
2428.85,1.44434
2440.06,1.44413
2451.32,1.44392
2462.63,1.44371
2474,1.4435
2485.42,1.44329
2496.89,1.44307
2508.42,1.44285
2520,1.44263
2531.63,1.4424
2543.31,1.44217
2555.05,1.44194
2566.85,1.44171
2578.69,1.44147
2590.6,1.44122
2602.55,1.44097
2614.57,1.44071
2626.64,1.44045
2638.76,1.44017
2650.94,1.43988
2663.18,1.43955
2675.47,1.43917
2687.82,1.43876
2700.22,1.43842
2712.69,1.4383
2725.21,1.43836
2737.79,1.43842
2750.43,1.43838
2763.12,1.43827
2775.87,1.43814
2788.69,1.438
2801.56,1.43781
2814.49,1.43759
2827.48,1.43735
2840.53,1.43709
2853.64,1.43682
2866.82,1.43653
2880.05,1.43623
2893.34,1.43592
2906.7,1.43561
2920.11,1.4353
2933.59,1.43499
2947.13,1.43469
2960.74,1.43438
2974.4,1.43408
2988.13,1.43377
3001.93,1.43347
3015.78,1.43316
3029.7,1.43284
3043.69,1.43253
3057.74,1.4322
3071.85,1.43188
3086.03,1.43154
3100.27,1.43121
3114.58,1.43086
3128.96,1.43052
3143.4,1.43017
3157.91,1.42981
3172.49,1.42945
3187.13,1.42908
3201.84,1.42871
3216.62,1.42834
3231.47,1.42796
3246.38,1.42757
3261.37,1.42717
3276.42,1.42677
3291.55,1.42636
3306.74,1.42594
3322,1.42551
3337.34,1.42505
3352.74,1.42453
3368.22,1.4241
3383.76,1.42396
3399.38,1.42342
3415.07,1.423
3430.84,1.42289
3446.67,1.4225
3462.58,1.42198
3478.56,1.42147
3494.62,1.42093
3510.75,1.42069
3526.95,1.42019
3543.23,1.41965
3559.59,1.41914
3576.02,1.41862
3592.53,1.41811
3609.11,1.41759
3625.77,1.41707
3642.5,1.41654
3659.32,1.41601
3676.21,1.41548
3693.17,1.41494
3710.22,1.41439
3727.35,1.41383
3744.55,1.41327
3761.84,1.41271
3779.2,1.41213
3796.64,1.41155
3814.17,1.41096
3831.77,1.41037
3849.46,1.40976
3867.23,1.40915
3885.08,1.40853
3903.01,1.4079
3921.03,1.40726
3939.13,1.40662
3957.31,1.40596
3975.57,1.4053
3993.92,1.40463
4012.36,1.40395
4030.88,1.40325
4049.49,1.40255
4068.18,1.40184
4086.96,1.40112
4105.82,1.40039
4124.77,1.39964
4143.81,1.39889
4162.94,1.39812
4182.15,1.39734
4201.46,1.39655
4220.85,1.39575
4240.33,1.39493
4259.9,1.3941
4279.57,1.39325
4299.32,1.39237
4319.17,1.39148
4339.1,1.39059
4359.13,1.38971
4379.25,1.38888
4399.46,1.38809
4419.77,1.38731
4440.17,1.3865
4460.67,1.38561
4481.26,1.38465
4501.94,1.38364
4522.72,1.3826
4543.6,1.38155
4564.57,1.38048
4585.64,1.3794
4606.81,1.3783
4628.07,1.37717
4649.43,1.37601
4670.89,1.37482
4692.45,1.3736
4714.11,1.37234
4735.87,1.37106
4757.73,1.36975
4779.69,1.36841
4801.75,1.36706
4823.92,1.3657
4846.18,1.36435
4868.55,1.36301
4891.02,1.3617
4913.6,1.36042
4936.28,1.35917
4959.07,1.35796
4981.96,1.35677
5004.95,1.35558
5028.05,1.35439
5051.26,1.35318
5074.58,1.35192
5098,1.35061
5121.53,1.34924
5145.17,1.34781
5168.92,1.34634
5192.78,1.34485
5216.75,1.34335
5240.83,1.34186
5265.02,1.34042
5289.32,1.33902
5313.73,1.33768
5338.26,1.33639
5362.9,1.33514
5387.66,1.3339
5412.52,1.33264
5437.51,1.33133
5462.61,1.32994
5487.82,1.32845
5513.15,1.32685
5538.6,1.32512
5564.16,1.32326
5589.85,1.32128
5615.65,1.3192
5641.57,1.31703
5667.61,1.31478
5693.77,1.31247
5720.05,1.31012
5746.45,1.30773
5772.98,1.3053
5799.62,1.30286
5826.39,1.30039
5853.29,1.29789
5880.31,1.29536
5907.45,1.29279
5934.71,1.29018
5962.11,1.28753
5989.63,1.28484
6017.28,1.28214
6045.05,1.27944
6072.95,1.27675
6100.98,1.27404
6129.14,1.27129
6157.44,1.26843
6185.86,1.26544
6214.41,1.2623
6243.09,1.25899
6271.91,1.25553
6300.86,1.25195
6329.94,1.24823
6359.16,1.2444
6388.51,1.24044
6418,1.23635
6447.63,1.23211
6477.39,1.22773
6507.29,1.22321
6537.32,1.21853
6567.5,1.21369
6597.81,1.2087
6628.27,1.20355
6658.86,1.19825
6689.6,1.19278
6720.47,1.18715
6751.49,1.18134
6782.66,1.17533
6813.96,1.16911
6845.42,1.16266
6877.01,1.15595
6908.76,1.14897
6940.65,1.1417
6972.68,1.13414
7004.87,1.1263
7037.2,1.1182
7069.68,1.10987
7102.31,1.10132
7135.1,1.09254
7168.03,1.08351
7201.12,1.07413
7234.36,1.06427
7267.75,1.05377
7301.29,1.04248
7335,1.03028
7368.85,1.01717
7402.87,1.00323
7437.04,0.98851
7471.36,0.972938
7505.85,0.956149
7540.5,0.937586
7575.3,0.916885
7610.27,0.894303
7645.39,0.8704
7680.68,0.844893
7716.14,0.816285
7751.75,0.78322
7787.53,0.745826
7823.48,0.705444
7859.59,0.663683
7895.87,0.622219
7932.31,0.583275
7968.93,0.549872
8005.71,0.525053
8042.66,0.510398
8079.79,0.505326
8117.08,0.507836
8154.55,0.515594
8192.19,0.526527
8230,0.538966
8267.99,0.551639
8306.15,0.563624
8344.49,0.574329
8383.01,0.583478
8421.7,0.59108
8460.57,0.597374
8499.63,0.602719
8538.86,0.607443
8578.27,0.611677
8617.87,0.615214
8657.65,0.617449
8697.61,0.61744
8737.76,0.614152
8778.09,0.606957
8818.6,0.596424
8859.31,0.585299
8900.2,0.579188
8941.28,0.586165
8982.55,0.615013
9024.02,0.672818
9065.67,0.763112
9107.51,0.885061
9149.55,1.03362
9191.79,1.20049
9234.21,1.37559
9276.84,1.54899
9319.66,1.71273
9362.67,1.86211
9405.89,1.9961
9449.3,2.11666
9492.92,2.22719
9536.74,2.33081
9580.76,2.4291
9624.98,2.52165
9669.41,2.6065
9714.04,2.68091
9758.88,2.74221
9803.92,2.78836
9849.18,2.81821
9894.64,2.83162
9940.31,2.82928
9986.19,2.81263