File: Si_220nm_active/materials/Si.csv
wavelength (nm),refractive index
1.20036,3.52349
1.20312,3.52297
1.2059,3.52245
1.20868,3.52194
1.21146,3.52142
1.21425,3.52091
1.21705,3.52041
1.21986,3.5199
1.22267,3.5194
1.22549,3.5189
1.22832,3.51841
1.23115,3.51791
1.23398,3.51742
1.23683,3.51694
1.23968,3.51645
1.24254,3.51597
1.2454,3.51549
1.24827,3.51501
1.25115,3.51453
1.25404,3.51406
1.25693,3.51359
1.25982,3.51312
1.26273,3.51266
1.26564,3.51219
1.26856,3.51173
1.27148,3.51127
1.27441,3.51082
1.27735,3.51037
1.28029,3.50991
1.28325,3.50947
1.2862,3.50902
1.28917,3.50858
1.29214,3.50813
1.29512,3.50769
1.29811,3.50726
1.3011,3.50682
1.3041,3.50639
1.3071,3.50596
1.31012,3.50553
1.31314,3.50511
1.31616,3.50468
1.3192,3.50426
1.32224,3.50384
1.32529,3.50342
1.32834,3.50301
1.3314,3.5026
1.33447,3.50219
1.33755,3.50178
1.34063,3.50137
1.34372,3.50097
1.34682,3.50057
1.34993,3.50017
1.35304,3.49977
1.35616,3.49937
1.35928,3.49898
1.36242,3.49858
1.36556,3.49819
1.36871,3.49781
1.37186,3.49742
1.37502,3.49704
1.37819,3.49665
1.38137,3.49627
1.38455,3.4959
1.38775,3.49552
1.39094,3.49515
1.39415,3.49477
1.39737,3.4944
1.40059,3.49403
1.40382,3.49367
1.40705,3.4933
1.41029,3.49294
1.41355,3.49258
1.4168,3.49222
1.42007,3.49186
1.42334,3.49151
1.42663,3.49115
1.42991,3.4908
1.43321,3.49045
1.43651,3.4901
1.43983,3.48975
1.44314,3.48941
1.44647,3.48907
1.44981,3.48872
1.45315,3.48838
1.4565,3.48805
1.45986,3.48771
1.46322,3.48737
1.46659,3.48704
1.46997,3.48671
1.47336,3.48638
1.47676,3.48605
1.48016,3.48573
1.48358,3.4854
1.487,3.48508
1.49042,3.48476
1.49386,3.48444
1.4973,3.48412
1.50076,3.4838
1.50421,3.48349
1.50768,3.48317
1.51116,3.48286
1.51464,3.48255
1.51813,3.48224
1.52163,3.48193
1.52514,3.48163
1.52866,3.48132
1.53218,3.48102
1.53571,3.48072
1.53925,3.48042
1.5428,3.48012
1.54636,3.47983
1.54992,3.47953
1.5535,3.47924
1.55708,3.47894
1.56067,3.47865
1.56426,3.47836
1.56787,3.47808
1.57148,3.47779
1.57511,3.4775
1.57874,3.47722
1.58238,3.47694
1.58602,3.47666
1.58968,3.47638
1.59335,3.4761
1.59702,3.47582
1.6007,3.47555
1.60439,3.47527
1.60809,3.475
1.6118,3.47473
1.61551,3.47446
1.61923,3.47419
1.62297,3.47392
1.62671,3.47366
1.63046,3.47339
1.63422,3.47313
1.63798,3.47287
1.64176,3.47261
1.64555,3.47235
1.64934,3.47209
1.65314,3.47183
1.65695,3.47158
1.66077,3.47132
1.6646,3.47107
1.66844,3.47082
1.67228,3.47057
1.67614,3.47032
1.68,3.47007
1.68388,3.46982
1.68776,3.46958
1.69165,3.46933
1.69555,3.46909
1.69946,3.46885
1.70337,3.46861
1.7073,3.46837
1.71124,3.46813
1.71518,3.46789
1.71913,3.46765
1.7231,3.46742
1.72707,3.46718
1.73105,3.46695
1.73504,3.46672
1.73904,3.46649
1.74305,3.46626
1.74707,3.46603
1.7511,3.4658
1.75513,3.46558
1.75918,3.46535
1.76323,3.46513
1.7673,3.46491
1.77137,3.46468
1.77546,3.46446
1.77955,3.46424
1.78365,3.46403
1.78776,3.46381
1.79188,3.46359
1.79601,3.46338
1.80015,3.46316
1.8043,3.46295
1.80846,3.46274
1.81263,3.46253
1.81681,3.46232
1.821,3.46211
1.8252,3.4619
1.82941,3.46169
1.83362,3.46148
1.83785,3.46128
1.84209,3.46108
1.84633,3.46087
1.85059,3.46067
1.85485,3.46047
1.85913,3.46027
1.86342,3.46007
1.86771,3.45987
1.87202,3.45968
1.87633,3.45948
1.88066,3.45928
1.88499,3.45909
1.88934,3.4589
1.89369,3.4587
1.89806,3.45851
1.90244,3.45832
1.90682,3.45813
1.91122,3.45794
1.91562,3.45775
1.92004,3.45757
1.92446,3.45738
1.9289,3.4572
1.93335,3.45701
1.9378,3.45683
1.94227,3.45665
1.94675,3.45646
1.95124,3.45628
1.95573,3.4561
1.96024,3.45592
1.96476,3.45575
1.96929,3.45557
1.97383,3.45539
1.97838,3.45522
1.98294,3.45504
1.98751,3.45487
1.99209,3.4547
1.99669,3.45452
2.00129,3.45435
2.0059,3.45418
2.01053,3.45401
2.01516,3.45384
2.01981,3.45367
2.02446,3.45351
2.02913,3.45334
2.03381,3.45317
2.0385,3.45301
2.0432,3.45285
2.04791,3.45268
2.05263,3.45252
2.05736,3.45236
2.0621,3.4522
2.06685,3.45204
2.07162,3.45188
2.07639,3.45172
2.08118,3.45156
2.08598,3.4514
2.09079,3.45125
2.09561,3.45109
2.10044,3.45094
2.10528,3.45078
2.11013,3.45063
2.115,3.45048
2.11987,3.45032
2.12476,3.45017
2.12966,3.45002
2.13457,3.44987
2.13949,3.44972
2.14442,3.44958
2.14936,3.44943
2.15432,3.44928
2.15928,3.44913
2.16426,3.44899
2.16925,3.44884
2.17425,3.4487
2.17926,3.44856
2.18429,3.44841
2.18932,3.44827
2.19437,3.44813
2.19943,3.44799
2.2045,3.44785
2.20958,3.44771
2.21467,3.44757
2.21978,3.44743
2.2249,3.4473
2.23003,3.44716
2.23517,3.44702
2.24032,3.44689
2.24548,3.44675
2.25066,3.44662
2.25585,3.44648
2.26105,3.44635
2.26626,3.44622
2.27149,3.44609
2.27672,3.44596
2.28197,3.44583
2.28723,3.4457
2.2925,3.44557
2.29779,3.44544
2.30308,3.44531
2.30839,3.44518
2.31372,3.44506
2.31905,3.44493
2.32439,3.4448
2.32975,3.44468
2.33512,3.44456
2.34051,3.44443
2.3459,3.44431
2.35131,3.44419
2.35673,3.44406
2.36216,3.44394
2.36761,3.44382
2.37307,3.4437
2.37854,3.44358
2.38402,3.44346
2.38952,3.44334
2.39502,3.44323
2.40055,3.44311
2.40608,3.44299
2.41163,3.44288
2.41718,3.44276
2.42276,3.44264
2.42834,3.44253
2.43394,3.44242
2.43955,3.4423
2.44517,3.44219
2.45081,3.44208
2.45646,3.44196
2.46212,3.44185
2.4678,3.44174
2.47349,3.44163
2.47919,3.44152
2.48491,3.44141
2.49063,3.4413
2.49638,3.44119
2.50213,3.44109
2.5079,3.44098
2.51368,3.44087
2.51947,3.44077
2.52528,3.44066
2.5311,3.44056
2.53694,3.44045
2.54279,3.44035
2.54865,3.44024
2.55452,3.44014
2.56041,3.44004
2.56631,3.43993
2.57223,3.43983
2.57816,3.43973
2.5841,3.43963
2.59006,3.43953
2.59603,3.43943
2.60202,3.43933
2.60801,3.43923
2.61403,3.43913
2.62005,3.43903
2.62609,3.43894
2.63215,3.43884
2.63821,3.43874
2.64429,3.43865
2.65039,3.43855
2.6565,3.43846
2.66262,3.43836
2.66876,3.43827
2.67491,3.43817
2.68108,3.43808
2.68726,3.43799
2.69346,3.43789
2.69967,3.4378
2.70589,3.43771
2.71213,3.43762
2.71838,3.43753
2.72464,3.43744
2.73093,3.43735
2.73722,3.43726
2.74353,3.43717
2.74986,3.43708
2.75619,3.43699
2.76255,3.4369
2.76892,3.43681
2.7753,3.43673
2.7817,3.43664
2.78811,3.43655
2.79454,3.43647
2.80098,3.43638
2.80744,3.4363
2.81391,3.43621
2.82039,3.43613
2.8269,3.43604
2.83341,3.43596
2.83994,3.43588
2.84649,3.43579
2.85305,3.43571
2.85963,3.43563
2.86622,3.43555
2.87283,3.43547
2.87945,3.43539
2.88609,3.43531
2.89274,3.43523
2.89941,3.43515
2.9061,3.43507
2.91279,3.43499
2.91951,3.43491
2.92624,3.43483
2.93299,3.43475
2.93975,3.43468
2.94652,3.4346
2.95332,3.43452
2.96012,3.43445
2.96695,3.43437
2.97379,3.43429
2.98064,3.43422
2.98751,3.43414
2.9944,3.43407
3.0013,3.43399