File: SiN_200nm/materials/SiO2.csv
wavelength (nm),refractive index
192.182,1.568052
193.778,1.565556
195.3741,1.56315
196.97,1.560828
198.567,1.558587
200.163,1.556423
201.759,1.554331
203.356,1.552309
204.952,1.550353
206.548,1.548461
208.145,1.546628
209.742,1.544853
211.338,1.543134
212.935,1.541467
214.531,1.53985
216.128,1.538283
217.725,1.536761
219.322,1.535283
220.919,1.533849
222.516,1.532455
224.112,1.5311
225.709,1.529783
227.306,1.528503
228.903,1.527257
230.5,1.526044
232.098,1.524864
233.695,1.523715
235.292,1.522596
236.889,1.521506
238.486,1.520444
240.084,1.519408
241.681,1.518399
243.278,1.517413
244.876,1.516453
246.473,1.515516
248.07,1.514601
249.668,1.513709
251.265,1.512836
252.863,1.511985
254.46,1.511153
256.058,1.510341
257.656,1.509546
259.253,1.50877
260.851,1.508011
262.4487,1.507269
264.046,1.506543
265.644,1.505833
267.242,1.505138
268.84,1.504457
270.438,1.503792
272.035,1.50314
273.633,1.502502
275.231,1.501877
276.829,1.501265
278.427,1.500665
280.025,1.500078
281.623,1.499503
283.2211,1.498938
284.819,1.498385
286.417,1.497843
288.015,1.497311
289.613,1.496789
291.211,1.496277
292.81,1.495776
294.408,1.495283
296.006,1.494799
297.604,1.494325
299.202,1.49386
300.801,1.493402
302.399,1.492954
303.997,1.492513
305.595,1.492081
307.194,1.491656
308.792,1.491238
310.39,1.490828
311.989,1.490424
313.587,1.490029
315.185,1.489639
316.784,1.489257
318.382,1.48888
319.98,1.48851
321.579,1.488146
323.177,1.487789
324.776,1.487437
326.374,1.487092
327.973,1.486751
329.571,1.486416
331.17,1.486087
332.768,1.485762
334.366,1.485443
335.965,1.485129
337.563,1.48482
339.162,1.484516
340.76,1.484216
342.359,1.483921
343.957,1.483631
345.556,1.483345
347.155,1.483063
348.753,1.482786
350.352,1.482512
351.95,1.482243
353.549,1.481978
355.147,1.481717
356.746,1.481459
358.344,1.481205
359.943,1.480955
361.541,1.480708
363.14,1.480466
364.738,1.480226
366.337,1.47999
367.936,1.479756
369.534,1.479528
371.133,1.479301
372.731,1.479077
374.33,1.478857
375.928,1.47864
377.527,1.478426
379.125,1.478214
380.724,1.478005
382.322,1.4778
383.921,1.477597
385.519,1.477396
387.118,1.477198
388.716,1.477003
390.315,1.47681
391.913,1.47662
393.512,1.476432
395.11,1.476246
396.709,1.476064
398.307,1.475883
399.905,1.475704
401.504,1.475528
403.102,1.475354
404.701,1.475182
406.299,1.475013
407.897,1.474845
409.496,1.47468
411.094,1.474516
412.692,1.474355
414.291,1.474194
415.889,1.474036
417.487,1.473881
419.085,1.473727
420.684,1.473574
422.282,1.473424
423.88,1.473276
425.478,1.473129
427.076,1.472983
428.675,1.472839
430.273,1.472697
431.871,1.472557
433.469,1.472418
435.067,1.472281
436.665,1.472145
438.263,1.472011
439.861,1.471878
441.459,1.471747
443.057,1.471617
444.655,1.471489
446.253,1.471362
447.851,1.471236
449.449,1.471112
451.047,1.470989
452.644,1.470867
454.242,1.470747
455.84,1.470628
457.438,1.47051
459.035,1.470393
460.633,1.470278
462.231,1.470164
463.828,1.470051
465.426,1.469939
467.024,1.469828
468.621,1.469718
470.219,1.46961
471.816,1.469503
473.414,1.469396
475.011,1.469291
476.608,1.469187
478.206,1.469084
479.803,1.468981
481.4,1.46888
482.998,1.46878
484.595,1.468681
486.192,1.468582
487.789,1.468485
489.386,1.468389
490.983,1.468293
492.581,1.468199
494.178,1.468105
495.775,1.468012
497.371,1.467921
498.968,1.46783
500.565,1.467739
502.162,1.467649
503.759,1.467561
505.356,1.467473
506.952,1.467386
508.549,1.4673
510.146,1.467215
511.742,1.46713
513.339,1.467046
514.935,1.466963
516.532,1.46688
518.128,1.466799
519.725,1.466718
521.321,1.466637
522.917,1.466558
524.513,1.466479
526.11,1.466401
527.706,1.466323
529.302,1.466246
530.898,1.466169
532.494,1.466094
534.09,1.466018
535.686,1.465944
537.282,1.465871
538.878,1.465798
540.473,1.465725
542.069,1.465653
543.665,1.465582
545.26,1.465511
546.856,1.465441
548.451,1.465371
550.047,1.465302
551.642,1.465233
553.238,1.465165
554.833,1.465098
556.428,1.46503
558.023,1.464964
559.619,1.464898
561.214,1.464833
562.809,1.464768
564.404,1.464704
565.999,1.464639
567.594,1.464576
569.188,1.464513
570.783,1.464451
572.378,1.464389
573.972,1.464327
575.567,1.464266
577.161,1.464205
578.756,1.464146
580.35,1.464086
581.945,1.464026
583.539,1.463967
585.133,1.463909
586.727,1.463851
588.321,1.463794
589.915,1.463736
591.509,1.463679
593.103,1.463623
594.697,1.463567
596.291,1.463511
597.885,1.463456
599.478,1.463401
601.072,1.463347
602.665,1.463293
604.259,1.463239
605.852,1.463186
607.445,1.463132
609.039,1.46308
610.632,1.463028
612.225,1.462976
613.818,1.462923
615.411,1.462872
617.004,1.462821
618.597,1.462771
620.189,1.462721
621.782,1.462671
623.375,1.462621
624.967,1.462572
626.56,1.462523
628.1521,1.462474
629.744,1.462426
631.337,1.462378
632.929,1.46233
634.521,1.462282
636.113,1.462235
637.705,1.462188
639.297,1.462142
640.888,1.462095
642.48,1.462049
644.072,1.462004
645.663,1.461958
647.255,1.461913
648.846,1.461867
650.4375,1.461823
652.029,1.461779
653.62,1.461735
655.211,1.46169
656.802,1.461646
658.393,1.461603
659.984,1.46156
661.574,1.461517
663.1651,1.461474
664.756,1.461432
666.346,1.46139
667.937,1.461348
669.527,1.461306
671.117,1.461265
672.707,1.461223
674.297,1.461182
675.887,1.461142
677.477,1.461101
679.067,1.461061
680.657,1.461021
682.246,1.460981
683.836,1.460941
685.425,1.460901
687.015,1.460862
688.604,1.460823
690.193,1.460784
691.782,1.460745
693.371,1.460707
694.96,1.460668
696.549,1.46063
698.138,1.460592
699.726,1.460554
701.315,1.460516
702.903,1.460479
704.492,1.460442
706.08,1.460405
707.668,1.460368
709.256,1.460331
710.844,1.460295
712.432,1.460259
714.02,1.460223
715.607,1.460187
717.195,1.460151
718.782,1.460116
720.37,1.460081
721.957,1.460045
723.544,1.46001
725.131,1.459974
726.718,1.45994
728.305,1.459905
729.892,1.459871
731.478,1.459836
733.065,1.459802
734.651,1.459768
736.238,1.459735
737.824,1.459701
739.41,1.459667
740.996,1.459634
742.582,1.459601
744.168,1.459568
745.754,1.459535
747.339,1.459502
748.925,1.459469
750.51,1.459437
752.096,1.459404
753.681,1.459372
755.266,1.45934
756.851,1.459308
758.436,1.459276
760.02,1.459244
761.605,1.459213
763.19,1.459181
764.774,1.459149
766.358,1.459118
767.943,1.459087
769.527,1.459056
771.111,1.459025
772.694,1.458995
774.278,1.458964
775.862,1.458933
777.445,1.458903
779.029,1.458872
780.612,1.458842
782.195,1.458812
783.778,1.458782
785.361,1.458753
786.944,1.458723
788.527,1.458693
790.109,1.458663
791.692,1.458634
793.274,1.458605
794.856,1.458576
796.438,1.458547
798.02,1.458518
799.602,1.458489
801.184,1.458461
802.765,1.458432
804.347,1.458403
805.928,1.458375
807.51,1.458346
809.091,1.458318
810.672,1.458289
812.253,1.458261
813.833,1.458233
815.414,1.458206
816.994,1.458178
818.575,1.45815
820.155,1.458122
821.735,1.458095
823.315,1.458067
824.895,1.45804
826.475,1.458012
828.054,1.457985
829.634,1.457958
831.213,1.457931
832.792,1.457904
834.371,1.457878
835.95,1.457851
837.529,1.457824
839.108,1.457798
840.686,1.457771
842.265,1.457744
843.843,1.457718
845.421,1.457692
846.999,1.457666
848.577,1.457639
850.155,1.457613
851.732,1.457587
853.31,1.457561
854.887,1.457536
856.464,1.45751
858.042,1.457484
859.618,1.457458
861.195,1.457433
862.772,1.457407
864.348,1.457382
865.925,1.457356
867.501,1.457331
869.077,1.457306
870.653,1.457281
872.229,1.457256
873.805,1.457231
875.38,1.457206
876.955,1.457181
878.531,1.457156
880.106,1.457131
881.681,1.457107
883.255,1.457082
884.8302,1.457057
886.405,1.457032
887.979,1.457008
889.553,1.456984
891.127,1.45696
892.701,1.456935
894.275,1.456911
895.849,1.456887
897.422,1.456862
898.995,1.456838
900.569,1.456815
902.142,1.456791
903.715,1.456767
905.287,1.456743
906.86,1.456719
908.432,1.456696
910.0047,1.456672
911.577,1.456648
913.149,1.456624
914.721,1.456601
916.292,1.456577
917.864,1.456554
919.435,1.456531
921.006,1.456507
922.577,1.456484
924.148,1.456461
925.719,1.456438
927.29,1.456415
928.86,1.456392
930.43,1.456369
932,1.456346
933.57,1.456323
935.14,1.4563
936.71,1.456277
938.279,1.456254
939.849,1.456231
941.418,1.456209
942.987,1.456186
944.555,1.456163
946.124,1.45614
947.693,1.456118
949.261,1.456095
950.829,1.456073
952.397,1.456051
953.965,1.456028
955.533,1.456006
957.1,1.455984
958.668,1.455962
960.235,1.455939
961.802,1.455917
963.369,1.455895
964.935,1.455873
966.502,1.455851
968.068,1.455829
969.634,1.455807
971.2,1.455785
972.766,1.455763
974.332,1.455741
975.897,1.455719
977.463,1.455697
979.028,1.455675
980.593,1.455654
982.158,1.455632
983.722,1.455611
985.287,1.455589
986.851,1.455567
988.415,1.455546
989.979,1.455524
991.543,1.455502
993.107,1.455481
994.67,1.455459
996.233,1.455438
997.796,1.455416
999.359,1.455395
1012.24,1.45522
1015.65,1.455174
1019.06,1.455128
1022.47,1.455082
1025.89,1.455036
1029.3,1.454991
1032.72,1.454945
1036.13,1.4549
1039.55,1.454855
1042.96,1.454809
1046.37,1.454764
1049.79,1.454719
1053.21,1.454674
1056.62,1.454629
1060.04,1.454584
1063.45,1.45454
1066.87,1.454495
1070.29,1.454451
1073.7,1.454406
1077.12,1.454362
1080.54,1.454318
1083.95,1.454274
1087.37,1.454229
1090.79,1.454185
1094.21,1.454141
1097.63,1.454097
1101.04,1.454053
1104.46,1.454009
1107.88,1.453966
1111.3,1.453922
1114.72,1.453878
1118.14,1.453834
1121.56,1.453791
1124.98,1.453747
1128.4,1.453704
1131.82,1.45366
1135.24,1.453617
1138.67,1.453574
1142.09,1.45353
1145.51,1.453487
1148.93,1.453443
1152.35,1.4534
1155.77,1.453357
1159.2,1.453314
1162.62,1.453271
1166.04,1.453228
1169.47,1.453184
1172.89,1.453141
1176.31,1.453098
1179.74,1.453055
1183.16,1.453012
1186.59,1.45297
1190.01,1.452927
1193.44,1.452884
1196.86,1.452841
1200.29,1.452798
1203.72,1.452755
1207.14,1.452712
1210.57,1.452669
1213.99,1.452626
1217.42,1.452583
1220.85,1.452541
1224.28,1.452498
1227.7,1.452455
1231.13,1.452412
1234.56,1.45237
1237.99,1.452327
1241.42,1.452284
1244.85,1.452241
1248.28,1.452198
1251.71,1.452155
1255.14,1.452113
1258.57,1.45207
1262,1.452027
1265.43,1.451984
1268.86,1.451942
1272.29,1.451899
1275.72,1.451856
1279.15,1.451813
1282.58,1.45177
1286.02,1.451727
1289.45,1.451685
1292.88,1.451642
1296.32,1.451599
1299.75,1.451556
1303.18,1.451513
1306.62,1.45147
1310.05,1.451427
1313.49,1.451384
1316.92,1.451341
1320.36,1.451298
1323.79,1.451255
1327.23,1.451212
1330.66,1.451169
1334.1,1.451126
1337.54,1.451082
1340.97,1.451039
1344.41,1.450996
1347.85,1.450953
1351.28,1.45091
1354.72,1.450866
1358.16,1.450823
1361.6,1.45078
1365.04,1.450737
1368.48,1.450693
1371.92,1.45065
1375.36,1.450606
1378.8,1.450563
1382.24,1.450519
1385.68,1.450476
1389.12,1.450432
1392.56,1.450389
1396,1.450345
1399.44,1.450301
1402.88,1.450258
1406.33,1.450214
1409.77,1.45017
1413.21,1.450127
1416.65,1.450083
1420.1,1.450039
1423.54,1.449995
1426.99,1.449951
1430.43,1.449907
1433.88,1.449863
1437.32,1.449819
1440.77,1.449775
1444.21,1.449731
1447.66,1.449687
1451.1,1.449642
1454.55,1.449598
1458,1.449554
1461.44,1.449509
1464.89,1.449465
1468.34,1.44942
1471.79,1.449376
1475.24,1.449331
1478.68,1.449287
1482.13,1.449242
1485.58,1.449197
1489.03,1.449152
1492.48,1.449107
1495.93,1.449062
1499.38,1.449017
1502.83,1.448972
1506.29,1.448927
1509.74,1.448882
1513.19,1.448837
1516.64,1.448792
1520.09,1.448747
1523.55,1.448702
1527,1.448657
1530.45,1.448611
1533.91,1.448566
1537.36,1.44852
1540.82,1.448475
1544.27,1.448429
1547.73,1.448383
1551.18,1.448337
1554.64,1.448292
1558.09,1.448246
1561.55,1.4482
1565.01,1.448154
1568.46,1.448108
1571.92,1.448062
1575.38,1.448016
1578.84,1.44797
1582.3,1.447924
1585.76,1.447877
1589.21,1.447831
1592.67,1.447785
1596.13,1.447738
1599.59,1.447691
1603.05,1.447645
1606.52,1.447598
1609.98,1.447552
1613.44,1.447505
1616.9,1.447458
1620.36,1.44741
1623.82,1.447363
1627.29,1.447316
1630.75,1.447269
1634.21,1.447222
1637.68,1.447175
1641.14,1.447127
1644.61,1.44708
1648.07,1.447033
1651.54,1.446986
1655,1.446938
1658.47,1.44689
1661.93,1.446842
1665.4,1.446795
1668.87,1.446747
1672.34,1.446699
1675.8,1.446651
1679.27,1.446603
1682.74,1.446555
1686.21,1.446507
1689.68,1.446458
1693.15,1.44641
1696.62,1.446362