File: SiN_300nm/materials/SiN.csv
wavelength (nm), refractive index
192.182,2.6617
193.778,2.648604
195.3741,2.635457
196.97,2.622259
198.567,2.609011
200.163,2.595712
201.759,2.582362
203.356,2.56896
204.952,2.555507
206.548,2.542002
208.145,2.528444
209.742,2.514835
211.338,2.501173
212.935,2.48746
214.531,2.473693
216.128,2.460593
217.725,2.449134
219.322,2.437629
220.919,2.426076
222.516,2.414475
224.112,2.402827
225.709,2.391545
227.306,2.382412
228.903,2.373245
230.5,2.364046
232.098,2.354814
233.695,2.345547
235.292,2.336247
236.889,2.327898
238.486,2.32079
240.084,2.313661
241.681,2.306509
243.278,2.299336
244.876,2.29214
246.473,2.284921
248.07,2.277765
249.668,2.272425
251.265,2.267072
252.863,2.261707
254.46,2.256328
256.058,2.250937
257.656,2.245533
259.253,2.240116
260.851,2.234686
262.4487,2.23056
264.046,2.226616
265.644,2.222666
267.242,2.218708
268.84,2.214743
270.438,2.210771
272.035,2.206792
273.633,2.202805
275.231,2.198812
276.829,2.19558
278.427,2.19254
280.025,2.189496
281.623,2.186447
283.2211,2.183395
284.819,2.180337
286.417,2.177276
288.015,2.17421
289.613,2.17114
291.211,2.168065
292.81,2.165519
294.408,2.163251
296.006,2.160981
297.604,2.158708
299.202,2.156433
300.801,2.154156
302.399,2.151876
303.997,2.149594
305.595,2.147309
307.194,2.145022
308.792,2.142732
310.39,2.140633
311.989,2.139132
313.587,2.137629
315.185,2.136125
316.784,2.13462
318.382,2.133114
319.98,2.131607
321.579,2.130099
323.177,2.128589
324.776,2.127079
326.374,2.125568
327.973,2.124055
329.571,2.122541
331.17,2.121027
332.768,2.119511
334.366,2.117994
335.965,2.116476
337.563,2.114957
339.162,2.113437
340.76,2.111916
342.359,2.110393
343.957,2.10887
345.556,2.107345
347.155,2.10582
348.753,2.104293
350.352,2.102765
351.95,2.101236
353.549,2.099706
355.147,2.098522
356.746,2.097636
358.344,2.096748
359.943,2.095861
361.541,2.094973
363.14,2.094085
364.738,2.093196
366.337,2.092307
367.936,2.091418
369.534,2.090528
371.133,2.089638
372.731,2.088747
374.33,2.087857
375.928,2.086965
377.527,2.086074
379.125,2.085181
380.724,2.084289
382.322,2.083396
383.921,2.082503
385.519,2.081609
387.118,2.080716
388.716,2.079821
390.315,2.078927
391.913,2.078032
393.512,2.077136
395.11,2.07624
396.709,2.075344
398.307,2.074448
399.905,2.073551
401.504,2.072653
403.102,2.071756
404.701,2.070858
406.299,2.069959
407.897,2.06906
409.496,2.068161
411.094,2.067261
412.692,2.066361
414.291,2.065712
415.889,2.065232
417.487,2.064751
419.085,2.06427
420.684,2.063789
422.282,2.063308
423.88,2.062827
425.478,2.062346
427.076,2.061865
428.675,2.061383
430.273,2.060902
431.871,2.06042
433.469,2.059938
435.067,2.059457
436.665,2.058975
438.263,2.058493
439.861,2.058011
441.459,2.057528
443.057,2.057046
444.655,2.056563
446.253,2.056081
447.851,2.055598
449.449,2.055115
451.047,2.054632
452.644,2.054149
454.242,2.053666
455.84,2.053183
457.438,2.0527
459.035,2.052216
460.633,2.051733
462.231,2.051249
463.828,2.050766
465.426,2.050282
467.024,2.049798
468.621,2.049314
470.219,2.048829
471.816,2.048345
473.414,2.047861
475.011,2.047376
476.608,2.046892
478.206,2.046407
479.803,2.045922
481.4,2.045437
482.998,2.044952
484.595,2.044467
486.192,2.043982
487.789,2.043497
489.386,2.043011
490.983,2.042526
492.581,2.04204
494.178,2.041554
495.775,2.041069
497.371,2.040791
498.968,2.040547
500.565,2.040303
502.162,2.04006
503.759,2.039816
505.356,2.039572
506.952,2.039329
508.549,2.039085
510.146,2.038841
511.742,2.038598
513.339,2.038354
514.935,2.03811
516.532,2.037866
518.128,2.037622
519.725,2.037378
521.321,2.037134
522.917,2.036891
524.513,2.036647
526.11,2.036403
527.706,2.036159
529.302,2.035915
530.898,2.035671
532.494,2.035427
534.09,2.035182
535.686,2.034938
537.282,2.034694
538.878,2.03445
540.473,2.034206
542.069,2.033962
543.665,2.033717
545.26,2.033473
546.856,2.033229
548.451,2.032985
550.047,2.03274
551.642,2.032496
553.238,2.032252
554.833,2.032007
556.428,2.031763
558.023,2.031519
559.619,2.031274
561.214,2.03103
562.809,2.030785
564.404,2.030541
565.999,2.030296
567.594,2.030052
569.188,2.029807
570.783,2.029562
572.378,2.029318
573.972,2.029073
575.567,2.028829
577.161,2.028584
578.756,2.028339
580.35,2.028095
581.945,2.02785
583.539,2.027605
585.133,2.02736
586.727,2.027116
588.321,2.026871
589.915,2.026626
591.509,2.026381
593.103,2.026136
594.697,2.025892
596.291,2.025647
597.885,2.025402
599.478,2.025157
601.072,2.024912
602.665,2.024667
604.259,2.024422
605.852,2.024177
607.445,2.023932
609.039,2.023687
610.632,2.023442
612.225,2.023197
613.818,2.022952
615.411,2.022707
617.004,2.022461
618.597,2.022216
620.189,2.021987
621.782,2.02188
623.375,2.021772
624.967,2.021665
626.56,2.021557
628.1521,2.02145
629.744,2.021342
631.337,2.021235
632.929,2.021127
634.521,2.021019
636.113,2.020912
637.705,2.020804
639.297,2.020697
640.888,2.020589
642.48,2.020482
644.072,2.020374
645.663,2.020267
647.255,2.020159
648.846,2.020052
650.4375,2.019944
652.029,2.019837
653.62,2.019729
655.211,2.019622
656.802,2.019514
658.393,2.019407
659.984,2.019299
661.574,2.019192
663.1651,2.019084
664.756,2.018976
666.346,2.018869
667.937,2.018761
669.527,2.018654
671.117,2.018546
672.707,2.018439
674.297,2.018331
675.887,2.018224
677.477,2.018116
679.067,2.018009
680.657,2.017901
682.246,2.017794
683.836,2.017686
685.425,2.017578
687.015,2.017471
688.604,2.017363
690.193,2.017256
691.782,2.017148
693.371,2.017041
694.96,2.016933
696.549,2.016826
698.138,2.016718
699.726,2.016611
701.315,2.016503
702.903,2.016396
704.492,2.016288
706.08,2.016181
707.668,2.016073
709.256,2.015965
710.844,2.015858
712.432,2.01575
714.02,2.015643
715.607,2.015535
717.195,2.015428
718.782,2.01532
720.37,2.015213
721.957,2.015105
723.544,2.014998
725.131,2.01489
726.718,2.014783
728.305,2.014675
729.892,2.014568
731.478,2.01446
733.065,2.014353
734.651,2.014245
736.238,2.014138
737.824,2.01403
739.41,2.013923
740.996,2.013815
742.582,2.013708
744.168,2.0136
745.754,2.013493
747.339,2.013385
748.925,2.013278
750.51,2.01317
752.096,2.013063
753.681,2.012955
755.266,2.012848
756.851,2.01274
758.436,2.012633
760.02,2.012525
761.605,2.012418
763.19,2.01231
764.774,2.012203
766.358,2.012095
767.943,2.011988
769.527,2.01188
771.111,2.011773
772.694,2.011666
774.278,2.011558
775.862,2.011451
777.445,2.011343
779.029,2.011236
780.612,2.011128
782.195,2.011021
783.778,2.010913
785.361,2.010806
786.944,2.010698
788.527,2.010591
790.109,2.010484
791.692,2.010376
793.274,2.010269
794.856,2.010161
796.438,2.010054
798.02,2.009946
799.602,2.009839
801.184,2.009732
802.765,2.009624
804.347,2.009516
805.928,2.009409
807.51,2.009302
809.091,2.009194
810.672,2.009087
812.253,2.00898
813.833,2.008872
815.414,2.008765
816.994,2.008657
818.575,2.00855
820.155,2.008442
821.735,2.008335
823.315,2.008228
824.895,2.00812
826.475,2.008013
828.054,2.007966
829.634,2.007928
831.213,2.00789
832.792,2.007852
834.371,2.007814
835.95,2.007776
837.529,2.007738
839.108,2.0077
840.686,2.007662
842.265,2.007623
843.843,2.007585
845.421,2.007547
846.999,2.007509
848.577,2.007471
850.155,2.007433
851.732,2.007395
853.31,2.007357
854.887,2.007319
856.464,2.007281
858.042,2.007243
859.618,2.007205
861.195,2.007166
862.772,2.007128
864.348,2.00709
865.925,2.007052
867.501,2.007014
869.077,2.006976
870.653,2.006938
872.229,2.0069
873.805,2.006862
875.38,2.006824
876.955,2.006786
878.531,2.006748
880.106,2.00671
881.681,2.006672
883.255,2.006634
884.8302,2.006596
886.405,2.006558
887.979,2.00652
889.553,2.006482
891.127,2.006444
892.701,2.006406
894.275,2.006368
895.849,2.00633
897.422,2.006292
898.995,2.006254
900.569,2.006216
902.142,2.006178
903.715,2.00614
905.287,2.006102
906.86,2.006064
908.432,2.006026
910.0047,2.005988
911.577,2.00595
913.149,2.005912
914.721,2.005874
916.292,2.005836
917.864,2.005798
919.435,2.00576
921.006,2.005722
922.577,2.005684
924.148,2.005646
925.719,2.005608
927.29,2.00557
928.86,2.005532
930.43,2.005494
932,2.005456
933.57,2.005418
935.14,2.00538
936.71,2.005342
938.279,2.005305
939.849,2.005267
941.418,2.005229
942.987,2.005191
944.555,2.005153
946.124,2.005115
947.693,2.005077
949.261,2.005039
950.829,2.005001
952.397,2.004963
953.965,2.004925
955.533,2.004888
957.1,2.00485
958.668,2.004812
960.235,2.004774
961.802,2.004736
963.369,2.004698
964.935,2.00466
966.502,2.004622
968.068,2.004585
969.634,2.004547
971.2,2.004509
972.766,2.004471
974.332,2.004433
975.897,2.004395
977.463,2.004357
979.028,2.00432
980.593,2.004282
982.158,2.004244
983.722,2.004206
985.287,2.004168
986.851,2.00413
988.415,2.004093
989.979,2.004055
991.543,2.004017
993.107,2.003979
994.67,2.003941
996.233,2.003904
997.796,2.003866
999.359,2.003828
1012.24,2.003516
1015.65,2.003434
1019.06,2.003351
1022.47,2.003269
1025.89,2.003186
1029.3,2.003104
1032.72,2.003021
1036.13,2.002939
1039.55,2.002856
1042.96,2.002773
1046.37,2.002691
1049.79,2.002608
1053.21,2.002525
1056.62,2.002443
1060.04,2.00236
1063.45,2.002277
1066.87,2.002195
1070.29,2.002112
1073.7,2.002029
1077.12,2.001947
1080.54,2.001864
1083.95,2.001781
1087.37,2.001698
1090.79,2.001616
1094.21,2.001533
1097.63,2.00145
1101.04,2.001367
1104.46,2.001285
1107.88,2.001202
1111.3,2.001119
1114.72,2.001036
1118.14,2.000953
1121.56,2.00087
1124.98,2.000788
1128.4,2.000705
1131.82,2.000622
1135.24,2.000539
1138.67,2.000456
1142.09,2.000373
1145.51,2.00029
1148.93,2.000208
1152.35,2.000125
1155.77,2.000042
1159.2,1.999959
1162.62,1.999876
1166.04,1.999793
1169.47,1.99971
1172.89,1.999627
1176.31,1.999544
1179.74,1.999461
1183.16,1.999378
1186.59,1.999295
1190.01,1.999212
1193.44,1.999129
1196.86,1.999046
1200.29,1.998963
1203.72,1.99888
1207.14,1.998797
1210.57,1.998714
1213.99,1.998631
1217.42,1.998548
1220.85,1.998464
1224.28,1.998381
1227.7,1.998298
1231.13,1.998215
1234.56,1.998132
1237.99,1.998049
1241.42,1.997966
1244.85,1.997882
1248.28,1.997799
1251.71,1.997716
1255.14,1.997633
1258.57,1.99755
1262,1.997466
1265.43,1.997383
1268.86,1.9973
1272.29,1.997217
1275.72,1.997133
1279.15,1.99705
1282.58,1.996967
1286.02,1.996884
1289.45,1.9968
1292.88,1.996717
1296.32,1.996634
1299.75,1.99655
1303.18,1.996467
1306.62,1.996384
1310.05,1.9963
1313.49,1.996217
1316.92,1.996134
1320.36,1.99605
1323.79,1.995967
1327.23,1.995883
1330.66,1.9958
1334.1,1.995716
1337.54,1.995633
1340.97,1.99555
1344.41,1.995466
1347.85,1.995383
1351.28,1.995299
1354.72,1.995216
1358.16,1.995132
1361.6,1.995049
1365.04,1.994965
1368.48,1.994882
1371.92,1.994798
1375.36,1.994714
1378.8,1.994631
1382.24,1.994547
1385.68,1.994464
1389.12,1.99438
1392.56,1.994297
1396,1.994213
1399.44,1.994129
1402.88,1.994046
1406.33,1.993962
1409.77,1.993878
1413.21,1.993795
1416.65,1.993711
1420.1,1.993627
1423.54,1.993544
1426.99,1.99346
1430.43,1.993376
1433.88,1.993292
1437.32,1.993209
1440.77,1.993125
1444.21,1.993041
1447.66,1.992957
1451.1,1.992873
1454.55,1.99279
1458,1.992706
1461.44,1.992622
1464.89,1.992538
1468.34,1.992454
1471.79,1.99237
1475.24,1.992287
1478.68,1.992203
1482.13,1.992119
1485.58,1.992035
1489.03,1.991951
1492.48,1.991867
1495.93,1.991783
1499.38,1.991699
1502.83,1.991615
1506.29,1.991531
1509.74,1.991447
1513.19,1.991363
1516.64,1.991279
1520.09,1.991195
1523.55,1.991111
1527,1.991027
1530.45,1.990943
1533.91,1.990859
1537.36,1.990775
1540.82,1.990691
1544.27,1.990607
1547.73,1.990523
1551.18,1.990438
1554.64,1.990354
1558.09,1.99027
1561.55,1.990186
1565.01,1.990102
1568.46,1.990018
1571.92,1.989933
1575.38,1.989849
1578.84,1.989765
1582.3,1.989681
1585.76,1.989596
1589.21,1.989512
1592.67,1.989428
1596.13,1.989344
1599.59,1.989259
1603.05,1.989175
1606.52,1.989091
1609.98,1.989007
1613.44,1.988922
1616.9,1.988838
1620.36,1.988753
1623.82,1.988669
1627.29,1.988585
1630.75,1.9885
1634.21,1.988416
1637.68,1.988331
1641.14,1.988247
1644.61,1.988163
1648.07,1.988078
1651.54,1.987994
1655,1.987909
1658.47,1.987825
1661.93,1.98774
1665.4,1.987656
1668.87,1.987571
1672.34,1.987487
1675.8,1.987402
1679.27,1.987318
1682.74,1.987233
1686.21,1.987148
1689.68,1.987064
1693.15,1.986979
1696.62,1.986894