File: SiN_300nm/materials/SiO2.csv
wavelength (nm),refractive index
200,1.55179
201.4,1.54988
202.8,1.548
204.2,1.54614
205.6,1.5443
207,1.54251
208.4,1.54079
209.8,1.53909
211.2,1.53741
212.6,1.53576
214,1.53415
215.4,1.53281
216.8,1.53152
218.2,1.53024
219.6,1.52898
221,1.52773
222.4,1.5265
223.8,1.52528
225.2,1.52407
226.6,1.52288
228,1.52178
229.4,1.52071
230.8,1.51966
232.2,1.51866
233.6,1.51767
235,1.51669
236.4,1.51572
237.8,1.51476
239.2,1.51385
240.6,1.51297
242,1.51212
243.4,1.51128
244.8,1.51044
246.2,1.50962
247.6,1.5088
249,1.50803
250.4,1.5073
251.8,1.50658
253.2,1.50586
254.6,1.50516
256,1.50446
257.4,1.50377
258.8,1.50308
260.2,1.5024
261.6,1.50173
263,1.50107
264.4,1.50041
265.8,1.49978
267.2,1.49918
268.6,1.49859
270,1.498
271.4,1.49744
272.8,1.49689
274.2,1.49634
275.6,1.4958
277,1.49527
278.4,1.49475
279.8,1.49424
281.2,1.49374
282.6,1.49326
284,1.49278
285.4,1.49231
286.8,1.49184
288.2,1.49137
289.6,1.49091
291,1.49048
292.4,1.49004
293.8,1.48961
295.2,1.48919
296.6,1.48877
298,1.48836
299.4,1.48796
300.8,1.48757
302.2,1.48718
303.6,1.48682
305,1.48646
306.4,1.48611
307.8,1.48576
309.2,1.48541
310.6,1.48506
312,1.48472
313.4,1.48438
314.8,1.48405
316.2,1.48372
317.6,1.48339
319,1.48306
320.4,1.48274
321.8,1.48241
323.2,1.4821
324.6,1.48178
326,1.48147
327.4,1.48116
328.8,1.48085
330.2,1.48054
331.6,1.48026
333,1.47999
334.4,1.47971
335.8,1.47944
337.2,1.47918
338.6,1.47891
340,1.47865
341.4,1.47839
342.8,1.47814
344.2,1.47789
345.6,1.47764
347,1.4774
348.4,1.47716
349.8,1.47693
351.2,1.4767
352.6,1.47647
354,1.47624
355.4,1.47601
356.8,1.47579
358.2,1.47557
359.6,1.47535
361,1.47513
362.4,1.47492
363.8,1.47471
365.2,1.4745
366.6,1.47431
368,1.47412
369.4,1.47393
370.8,1.47375
372.2,1.47356
373.6,1.47338
375,1.47319
376.4,1.47301
377.8,1.47283
379.2,1.47265
380.6,1.47248
382,1.4723
383.4,1.47212
384.8,1.47195
386.2,1.47178
387.6,1.47161
389,1.47144
390.4,1.47127
391.8,1.4711
393.2,1.47093
394.6,1.47077
396,1.4706
397.4,1.47044
398.8,1.47028
400.2,1.47012
401.6,1.46996
403,1.4698
404.4,1.46964
405.8,1.4695
407.2,1.46936
408.6,1.46922
410,1.46908
411.4,1.46894
412.8,1.46881
414.2,1.46867
415.6,1.46854
417,1.4684
418.4,1.46827
419.8,1.46814
421.2,1.46801
422.6,1.46788
424,1.46775
425.4,1.46762
426.8,1.46749
428.2,1.46737
429.6,1.46724
431,1.46712
432.4,1.46699
433.8,1.46687
435.2,1.46675
436.6,1.46663
438,1.46652
439.4,1.46641
440.8,1.46629
442.2,1.46618
443.6,1.46608
445,1.46597
446.4,1.46586
447.8,1.46575
449.2,1.46565
450.6,1.46554
452,1.46543
453.4,1.46533
454.8,1.46523
456.2,1.46512
457.6,1.46502
459,1.46492
460.4,1.46482
461.8,1.46472
463.2,1.46462
464.6,1.46452
466,1.46442
467.4,1.46432
468.8,1.46423
470.2,1.46413
471.6,1.46404
473,1.46395
474.4,1.46386
475.8,1.46377
477.2,1.46368
478.6,1.4636
480,1.46351
481.4,1.46342
482.8,1.46333
484.2,1.46325
485.6,1.46316
487,1.46308
488.4,1.463
489.8,1.46292
491.2,1.46284
492.6,1.46276
494,1.46268
495.4,1.4626
496.8,1.46252
498.2,1.46244
499.6,1.46236
501,1.46228
502.4,1.46221
503.8,1.46213
505.2,1.46205
506.6,1.46198
508,1.4619
509.4,1.46183
510.8,1.46176
512.2,1.46169
513.6,1.46162
515,1.46155
516.4,1.46148
517.8,1.46141
519.2,1.46134
520.6,1.46127
522,1.4612
523.4,1.46113
524.8,1.46106
526.2,1.461
527.6,1.46093
529,1.46086
530.4,1.4608
531.8,1.46073
533.2,1.46067
534.6,1.4606
536,1.46054
537.4,1.46047
538.8,1.46041
540.2,1.46034
541.6,1.46028
543,1.46022
544.4,1.46015
545.8,1.46009
547.2,1.46003
548.6,1.45997
550,1.45992
551.4,1.45986
552.8,1.4598
554.2,1.45974
555.6,1.45969
557,1.45963
558.4,1.45957
559.8,1.45952
561.2,1.45946
562.6,1.45941
564,1.45935
565.4,1.45929
566.8,1.45924
568.2,1.45919
569.6,1.45913
571,1.45908
572.4,1.45902
573.8,1.45897
575.2,1.45892
576.6,1.45886
578,1.45881
579.4,1.45876
580.8,1.45871
582.2,1.45866
583.6,1.45861
585,1.45856
586.4,1.45851
587.8,1.45846
589.2,1.45841
590.6,1.45836
592,1.45832
593.4,1.45827
594.8,1.45822
596.2,1.45818
597.6,1.45813
599,1.45808
600.4,1.45804
601.8,1.45799
603.2,1.45795
604.6,1.4579
606,1.45786
607.4,1.45781
608.8,1.45777
610.2,1.45772
611.6,1.45768
613,1.45763
614.4,1.45759
615.8,1.45755
617.2,1.4575
618.6,1.45746
620,1.45742
621.4,1.45737
622.8,1.45733
624.2,1.45729
625.6,1.45725
627,1.4572
628.4,1.45716
629.8,1.45712
631.2,1.45708
632.6,1.45704
634,1.457
635.4,1.45695
636.8,1.45691
638.2,1.45687
639.6,1.45683
641,1.45679
642.4,1.45675
643.8,1.45671
645.2,1.45667
646.6,1.45663
648,1.45659
649.4,1.45656
650.8,1.45652
652.2,1.45648
653.6,1.45644
655,1.4564
656.4,1.45637
657.8,1.45633
659.2,1.4563
660.6,1.45626
662,1.45622
663.4,1.45619
664.8,1.45615
666.2,1.45612
667.6,1.45609
669,1.45605
670.4,1.45601
671.8,1.45598
673.2,1.45594
674.6,1.45591
676,1.45587
677.4,1.45584
678.8,1.45581
680.2,1.45577
681.6,1.45574
683,1.4557
684.4,1.45567
685.8,1.45563
687.2,1.4556
688.6,1.45557
690,1.45553
691.4,1.4555
692.8,1.45547
694.2,1.45543
695.6,1.4554
697,1.45537
698.4,1.45534
699.8,1.4553
701.2,1.45527
702.6,1.45524
704,1.45521
705.4,1.45518
706.8,1.45514
708.2,1.45511
709.6,1.45508
711,1.45505
712.4,1.45502
713.8,1.45499
715.2,1.45496
716.6,1.45493
718,1.4549
719.4,1.45487
720.8,1.45484
722.2,1.45481
723.6,1.45478
725,1.45475
726.4,1.45472
727.8,1.45469
729.2,1.45466
730.6,1.45464
732,1.45461
733.4,1.45458
734.8,1.45455
736.2,1.45452
737.6,1.45449
739,1.45446
740.4,1.45444
741.8,1.45441
743.2,1.45438
744.6,1.45435
746,1.45432
747.4,1.4543
748.8,1.45427
750.2,1.45424
751.6,1.45421
753,1.45419
754.4,1.45416
755.8,1.45413
757.2,1.4541
758.6,1.45408
760,1.45405
761.4,1.45402
762.8,1.454
764.2,1.45397
765.6,1.45394
767,1.45392
768.4,1.45389
769.8,1.45387
771.2,1.45384
772.6,1.45381
774,1.45379
775.4,1.45376
776.8,1.45374
778.2,1.45371
779.6,1.45369
781,1.45366
782.4,1.45364
783.8,1.45361
785.2,1.45358
786.6,1.45356
788,1.45353
789.4,1.45351
790.8,1.45349
792.2,1.45346
793.6,1.45344
795,1.45341
796.4,1.45339
797.8,1.45336
799.2,1.45334
800.6,1.45331
802,1.45329
803.4,1.45327
804.8,1.45324
806.2,1.45322
807.6,1.45319
809,1.45317
810.4,1.45315
811.8,1.45312
813.2,1.4531
814.6,1.45308
816,1.45305
817.4,1.45303
818.8,1.45301
820.2,1.45298
821.6,1.45296
823,1.45294
824.4,1.45292
825.8,1.45289
827.2,1.45287
828.6,1.45285
830,1.45283
831.4,1.4528
832.8,1.45278
834.2,1.45276
835.6,1.45274
837,1.45271
838.4,1.45269
839.8,1.45267
841.2,1.45265
842.6,1.45263
844,1.4526
845.4,1.45258
846.8,1.45256
848.2,1.45254
849.6,1.45252
851,1.4525
852.4,1.45248
853.8,1.45245
855.2,1.45243
856.6,1.45241
858,1.45239
859.4,1.45237
860.8,1.45235
862.2,1.45232
863.6,1.4523
865,1.45228
866.4,1.45226
867.8,1.45224
869.2,1.45222
870.6,1.4522
872,1.45218
873.4,1.45215
874.8,1.45213
876.2,1.45211
877.6,1.45209
879,1.45207
880.4,1.45205
881.8,1.45203
883.2,1.45201
884.6,1.45199
886,1.45197
887.4,1.45195
888.8,1.45193
890.2,1.45191
891.6,1.45189
893,1.45187
894.4,1.45185
895.8,1.45183
897.2,1.45181
898.6,1.45179
900,1.45176
901.4,1.45174
902.8,1.45172
904.2,1.4517
905.6,1.45168
907,1.45166
908.4,1.45164
909.8,1.45162
911.2,1.4516
912.6,1.45158
914,1.45156
915.4,1.45154
916.8,1.45152
918.2,1.4515
919.6,1.45148
921,1.45146
922.4,1.45144
923.8,1.45142
925.2,1.4514
926.6,1.45138
928,1.45136
929.4,1.45134
930.8,1.45132
932.2,1.4513
933.6,1.45128
935,1.45126
936.4,1.45124
937.8,1.45122
939.2,1.4512
940.6,1.45118
942,1.45116
943.4,1.45115
944.8,1.45113
946.2,1.45111
947.6,1.45109
949,1.45107
950.4,1.45105
951.8,1.45103
953.2,1.45101
954.6,1.45099
956,1.45098
957.4,1.45096
958.8,1.45094
960.2,1.45092
961.6,1.4509
963,1.45088
964.4,1.45087
965.8,1.45085
967.2,1.45083
968.6,1.45081
970,1.45079
971.4,1.45077
972.8,1.45076
974.2,1.45074
975.6,1.45072
977,1.4507
978.4,1.45069
979.8,1.45067
981.2,1.45065
982.6,1.45063
984,1.45061
985.4,1.4506
986.8,1.45058
988.2,1.45056
989.6,1.45054
991,1.45053
992.4,1.45051
993.8,1.45049
995.2,1.45048
996.6,1.45046
998,1.45044
999.4,1.45042
1000.8,1.45041
1002.2,1.45039
1003.6,1.45037
1005,1.45036
1006.4,1.45034
1007.8,1.45032
1009.2,1.45031
1010.6,1.45029
1012,1.45027
1013.4,1.45026
1014.8,1.45024
1016.2,1.45022
1017.6,1.4502
1019,1.45019
1020.4,1.45017
1021.8,1.45015
1023.2,1.45013
1024.6,1.45011
1026,1.4501
1027.4,1.45008
1028.8,1.45006
1030.2,1.45004
1031.6,1.45002
1033,1.45001
1034.4,1.44999
1035.8,1.44997
1037.2,1.44995
1038.6,1.44994
1040,1.44992
1041.4,1.4499
1042.8,1.44989
1044.2,1.44987
1045.6,1.44985
1047,1.44983
1048.4,1.44982
1049.8,1.4498
1051.2,1.44978
1052.6,1.44977
1054,1.44975
1055.4,1.44973
1056.8,1.44972
1058.2,1.4497
1059.6,1.44968
1061,1.44967
1062.4,1.44965
1063.8,1.44963
1065.2,1.44962
1066.6,1.4496
1068,1.44958
1069.4,1.44957
1070.8,1.44955
1072.2,1.44953
1073.6,1.44952
1075,1.4495
1076.4,1.44949
1077.8,1.44947
1079.2,1.44945
1080.6,1.44944
1082,1.44942
1083.4,1.4494
1084.8,1.44939
1086.2,1.44937
1087.6,1.44935
1089,1.44934
1090.4,1.44932
1091.8,1.4493
1093.2,1.44929
1094.6,1.44927
1096,1.44925
1097.4,1.44924
1098.8,1.44922
1100.2,1.4492
1101.6,1.44919
1103,1.44917
1104.4,1.44916
1105.8,1.44914
1107.2,1.44912
1108.6,1.44911
1110,1.44909
1111.4,1.44908
1112.8,1.44906
1114.2,1.44904
1115.6,1.44903
1117,1.44901
1118.4,1.449
1119.8,1.44898
1121.2,1.44896
1122.6,1.44895
1124,1.44893
1125.4,1.44892
1126.8,1.4489
1128.2,1.44889
1129.6,1.44887
1131,1.44885
1132.4,1.44883
1133.8,1.44881
1135.2,1.44879
1136.6,1.44877
1138,1.44875
1139.4,1.44873
1140.8,1.44871
1142.2,1.4487
1143.6,1.44868
1145,1.44866
1146.4,1.44864
1147.8,1.44862
1149.2,1.4486
1150.6,1.44858
1152,1.44856
1153.4,1.44855
1154.8,1.44853
1156.2,1.44851
1157.6,1.44849
1159,1.44847
1160.4,1.44845
1161.8,1.44844
1163.2,1.44842
1164.6,1.4484
1166,1.44838
1167.4,1.44836
1168.8,1.44835
1170.2,1.44833
1171.6,1.44831
1173,1.44829
1174.4,1.44827
1175.8,1.44826
1177.2,1.44824
1178.6,1.44822
1180,1.4482
1181.4,1.44819
1182.8,1.44817
1184.2,1.44815
1185.6,1.44813
1187,1.44812
1188.4,1.4481
1189.8,1.44808
1191.2,1.44806
1192.6,1.44805
1194,1.44803
1195.4,1.44801
1196.8,1.44799
1198.2,1.44798
1199.6,1.44796
1201,1.44794
1202.4,1.44793
1203.8,1.44791
1205.2,1.44789
1206.6,1.44787
1208,1.44786
1209.4,1.44784
1210.8,1.44782
1212.2,1.44781
1213.6,1.44779
1215,1.44777
1216.4,1.44776
1217.8,1.44774
1219.2,1.44772
1220.6,1.44771
1222,1.44769
1223.4,1.44767
1224.8,1.44766
1226.2,1.44764
1227.6,1.44763
1229,1.44761
1230.4,1.44759
1231.8,1.44758
1233.2,1.44756
1234.6,1.44754
1236,1.44753
1237.4,1.44751
1238.8,1.4475
1240.2,1.44748
1241.6,1.44746
1243,1.44745
1244.4,1.44743
1245.8,1.44742
1247.2,1.4474
1248.6,1.44738
1250,1.44737
1251.4,1.44735
1252.8,1.44734
1254.2,1.44732
1255.6,1.44731
1257,1.44729
1258.4,1.44727
1259.8,1.44726
1261.2,1.44724
1262.6,1.44723
1264,1.44721
1265.4,1.4472
1266.8,1.44718
1268.2,1.44717
1269.6,1.44715
1271,1.44714
1272.4,1.44712
1273.8,1.44711
1275.2,1.44709
1276.6,1.44708
1278,1.44706
1279.4,1.44705
1280.8,1.44703
1282.2,1.44702
1283.6,1.447
1285,1.44699
1286.4,1.44697
1287.8,1.44696
1289.2,1.44694
1290.6,1.44693
1292,1.44691
1293.4,1.4469
1294.8,1.44688
1296.2,1.44687
1297.6,1.44685
1299,1.44684
1300.4,1.44682
1301.8,1.44681
1303.2,1.44679
1304.6,1.44678
1306,1.44677
1307.4,1.44675
1308.8,1.44674
1310.2,1.44672
1311.6,1.44671
1313,1.44669
1314.4,1.44668
1315.8,1.44667
1317.2,1.44665
1318.6,1.44664
1320,1.44662
1321.4,1.44661
1322.8,1.44659
1324.2,1.44658
1325.6,1.44657
1327,1.44655
1328.4,1.44654
1329.8,1.44652
1331.2,1.44651
1332.6,1.4465
1334,1.44648
1335.4,1.44647
1336.8,1.44646
1338.2,1.44644
1339.6,1.44643
1341,1.44641
1342.4,1.4464
1343.8,1.44639
1345.2,1.44637
1346.6,1.44636
1348,1.44635
1349.4,1.44633
1350.8,1.44632
1352.2,1.44631
1353.6,1.44629
1355,1.44628
1356.4,1.44627
1357.8,1.44625
1359.2,1.44624
1360.6,1.44623
1362,1.44621
1363.4,1.4462
1364.8,1.44618
1366.2,1.44616
1367.6,1.44615
1369,1.44613
1370.4,1.44612
1371.8,1.4461
1373.2,1.44608
1374.6,1.44607
1376,1.44605
1377.4,1.44604
1378.8,1.44602
1380.2,1.44601
1381.6,1.44599
1383,1.44597
1384.4,1.44596
1385.8,1.44594
1387.2,1.44593
1388.6,1.44591
1390,1.4459
1391.4,1.44588
1392.8,1.44586
1394.2,1.44585
1395.6,1.44583
1397,1.44582
1398.4,1.4458
1399.8,1.44578
1401.2,1.44576
1402.6,1.44575
1404,1.44573
1405.4,1.44571
1406.8,1.4457
1408.2,1.44568
1409.6,1.44566
1411,1.44565
1412.4,1.44563
1413.8,1.44561
1415.2,1.4456
1416.6,1.44558
1418,1.44556
1419.4,1.44555
1420.8,1.44553
1422.2,1.44551
1423.6,1.4455
1425,1.44548
1426.4,1.44546
1427.8,1.44545
1429.2,1.44543
1430.6,1.44541
1432,1.4454
1433.4,1.44538
1434.8,1.44536
1436.2,1.44535
1437.6,1.44533
1439,1.44532
1440.4,1.4453
1441.8,1.44528
1443.2,1.44527
1444.6,1.44525
1446,1.44524
1447.4,1.44522
1448.8,1.4452
1450.2,1.44519
1451.6,1.44517
1453,1.44516
1454.4,1.44514
1455.8,1.44512
1457.2,1.44511
1458.6,1.44509
1460,1.44508
1461.4,1.44506
1462.8,1.44504
1464.2,1.44503
1465.6,1.44501
1467,1.445
1468.4,1.44498
1469.8,1.44497
1471.2,1.44495
1472.6,1.44493
1474,1.44492
1475.4,1.4449
1476.8,1.44488
1478.2,1.44487
1479.6,1.44485
1481,1.44483
1482.4,1.44481
1483.8,1.4448
1485.2,1.44478
1486.6,1.44476
1488,1.44475
1489.4,1.44473
1490.8,1.44472
1492.2,1.4447
1493.6,1.44468
1495,1.44467
1496.4,1.44465
1497.8,1.44463
1499.2,1.44462
1500.6,1.4446
1502,1.44458
1503.4,1.44457
1504.8,1.44455
1506.2,1.44454
1507.6,1.44452
1509,1.4445
1510.4,1.44449
1511.8,1.44447
1513.2,1.44445
1514.6,1.44444
1516,1.44442
1517.4,1.44441
1518.8,1.44439
1520.2,1.44438
1521.6,1.44436
1523,1.44434
1524.4,1.44433
1525.8,1.44431
1527.2,1.4443
1528.6,1.44428
1530,1.44426
1531.4,1.44425
1532.8,1.44423
1534.2,1.44421
1535.6,1.44419
1537,1.44417
1538.4,1.44415
1539.8,1.44413
1541.2,1.44412
1542.6,1.4441
1544,1.44408
1545.4,1.44406
1546.8,1.44404
1548.2,1.44403
1549.6,1.44401
1551,1.44399
1552.4,1.44397
1553.8,1.44395
1555.2,1.44394
1556.6,1.44392
1558,1.4439
1559.4,1.44388
1560.8,1.44386
1562.2,1.44385
1563.6,1.44383
1565,1.44381
1566.4,1.44379
1567.8,1.44378
1569.2,1.44376
1570.6,1.44374
1572,1.44372
1573.4,1.4437
1574.8,1.44369
1576.2,1.44367
1577.6,1.44365
1579,1.44364
1580.4,1.44362
1581.8,1.4436
1583.2,1.44358
1584.6,1.44357
1586,1.44355
1587.4,1.44353
1588.8,1.44351
1590.2,1.4435
1591.6,1.44348
1593,1.44346
1594.4,1.44345
1595.8,1.44343
1597.2,1.44341
1598.6,1.44339
1600,1.44338
1601.4,1.44336
1602.8,1.44334
1604.2,1.44333
1605.6,1.44331
1607,1.44329
1608.4,1.44328
1609.8,1.44326
1611.2,1.44324
1612.6,1.44323
1614,1.44321
1615.4,1.44319
1616.8,1.44318
1618.2,1.44316
1619.6,1.44314
1621,1.44313
1622.4,1.44311
1623.8,1.44309
1625.2,1.44308
1626.6,1.44306
1628,1.44304
1629.4,1.44303
1630.8,1.44301
1632.2,1.44299
1633.6,1.44298
1635,1.44296
1636.4,1.44295
1637.8,1.44293
1639.2,1.44291
1640.6,1.4429
1642,1.44288
1643.4,1.44287
1644.8,1.44285
1646.2,1.44283
1647.6,1.44282
1649,1.4428
1650.4,1.44279
1651.8,1.44277
1653.2,1.44275
1654.6,1.44274
1656,1.44272
1657.4,1.44271
1658.8,1.44269
1660.2,1.44267
1661.6,1.44266
1663,1.44264
1664.4,1.44262
1665.8,1.4426
1667.2,1.44259
1668.6,1.44257
1670,1.44255
1671.4,1.44253
1672.8,1.44251
1674.2,1.4425
1675.6,1.44248
1677,1.44246
1678.4,1.44244
1679.8,1.44243
1681.2,1.44241
1682.6,1.44239
1684,1.44237
1685.4,1.44236
1686.8,1.44234
1688.2,1.44232
1689.6,1.4423
1691,1.44229
1692.4,1.44227
1693.8,1.44225
1695.2,1.44223
1696.6,1.44221
1698,1.4422
1699.4,1.44218
1700.8,1.44216
1702.2,1.44214
1703.6,1.44212
1705,1.4421
1706.4,1.44209
1707.8,1.44207
1709.2,1.44205
1710.6,1.44203
1712,1.44201
1713.4,1.44199
1714.8,1.44197
1716.2,1.44195
1717.6,1.44193
1719,1.44191
1720.4,1.44189
1721.8,1.44188
1723.2,1.44186
1724.6,1.44184
1726,1.44182
1727.4,1.4418
1728.8,1.44178
1730.2,1.44176
1731.6,1.44174
1733,1.44172
1734.4,1.4417
1735.8,1.44169
1737.2,1.44167
1738.6,1.44165
1740,1.44163
1741.4,1.44161
1742.8,1.44159
1744.2,1.44157
1745.6,1.44155
1747,1.44154
1748.4,1.44152
1749.8,1.4415
1751.2,1.44148
1752.6,1.44146
1754,1.44144
1755.4,1.44142
1756.8,1.44141
1758.2,1.44139
1759.6,1.44137
1761,1.44135
1762.4,1.44133
1763.8,1.44131
1765.2,1.4413
1766.6,1.44128
1768,1.44126
1769.4,1.44124
1770.8,1.44122
1772.2,1.44121
1773.6,1.44119
1775,1.44117
1776.4,1.44115
1777.8,1.44113
1779.2,1.44112
1780.6,1.4411
1782,1.44108
1783.4,1.44106
1784.8,1.44104
1786.2,1.44103
1787.6,1.44101
1789,1.44099
1790.4,1.44097
1791.8,1.44096
1793.2,1.44094
1794.6,1.44092
1796,1.4409
1797.4,1.44089
1798.8,1.44087
1800.2,1.44085
1801.6,1.44083
1803,1.44081
1804.4,1.4408
1805.8,1.44078
1807.2,1.44076
1808.6,1.44075
1810,1.44073
1811.4,1.44071
1812.8,1.44069
1814.2,1.44067
1815.6,1.44065
1817,1.44063
1818.4,1.44061
1819.8,1.44059
1821.2,1.44057
1822.6,1.44055
1824,1.44053
1825.4,1.44051
1826.8,1.44048
1828.2,1.44046
1829.6,1.44044
1831,1.44042
1832.4,1.4404
1833.8,1.44038
1835.2,1.44036
1836.6,1.44034
1838,1.44032
1839.4,1.4403
1840.8,1.44028
1842.2,1.44026
1843.6,1.44024
1845,1.44022
1846.4,1.4402
1847.8,1.44018
1849.2,1.44016
1850.6,1.44014
1852,1.44012
1853.4,1.4401
1854.8,1.44007
1856.2,1.44005
1857.6,1.44003
1859,1.44001
1860.4,1.43999
1861.8,1.43997
1863.2,1.43995
1864.6,1.43993
1866,1.43991
1867.4,1.43989
1868.8,1.43987
1870.2,1.43985
1871.6,1.43984
1873,1.43982
1874.4,1.4398
1875.8,1.43978
1877.2,1.43976
1878.6,1.43974
1880,1.43972
1881.4,1.4397
1882.8,1.43968
1884.2,1.43966
1885.6,1.43964
1887,1.43962
1888.4,1.4396
1889.8,1.43958
1891.2,1.43956
1892.6,1.43954
1894,1.43952
1895.4,1.4395
1896.8,1.43948
1898.2,1.43946
1899.6,1.43944
1901,1.43943
1902.4,1.43941
1903.8,1.43939
1905.2,1.43937
1906.6,1.43935
1908,1.43933
1909.4,1.43931
1910.8,1.43929
1912.2,1.43927
1913.6,1.43925
1915,1.43923
1916.4,1.43922
1917.8,1.4392
1919.2,1.43918
1920.6,1.43916
1922,1.43914
1923.4,1.43912
1924.8,1.4391
1926.2,1.43908
1927.6,1.43907
1929,1.43905
1930.4,1.43903
1931.8,1.43901
1933.2,1.43899
1934.6,1.43897
1936,1.43895
1937.4,1.43893
1938.8,1.43892
1940.2,1.4389
1941.6,1.43888
1943,1.43886
1944.4,1.43884
1945.8,1.43882
1947.2,1.43881
1948.6,1.43879
1950,1.43877
1951.4,1.43875
1952.8,1.43873
1954.2,1.43871
1955.6,1.4387
1957,1.43868
1958.4,1.43866
1959.8,1.43864
1961.2,1.43862
1962.6,1.43861
1964,1.43859
1965.4,1.43857
1966.8,1.43855
1968.2,1.43853
1969.6,1.43852
1971,1.4385
1972.4,1.43847
1973.8,1.43845
1975.2,1.43843
1976.6,1.43841
1978,1.43839
1979.4,1.43837
1980.8,1.43835
1982.2,1.43833
1983.6,1.4383
1985,1.43828
1986.4,1.43826
1987.8,1.43824
1989.2,1.43822
1990.6,1.4382
1992,1.43818
1993.4,1.43816
1994.8,1.43814
1996.2,1.43812
1997.6,1.43809
1999,1.43807
2000,1.43806